selectBlock,category,paths,semantic,action,image3,number,image4,image1,image2,trigger_loop.thisRepN,trigger_loop.thisTrialN,trigger_loop.thisN,trigger_loop.thisIndex,blockSelectLoop.thisRepN,blockSelectLoop.thisTrialN,blockSelectLoop.thisN,blockSelectLoop.thisIndex,b1loop.thisRepN,b1loop.thisTrialN,b1loop.thisN,b1loop.thisIndex,b2loop.thisRepN,b2loop.thisTrialN,b2loop.thisN,b2loop.thisIndex,b3loop.thisRepN,b3loop.thisTrialN,b3loop.thisN,b3loop.thisIndex,b3_trialLoop.thisRepN,b3_trialLoop.thisTrialN,b3_trialLoop.thisN,b3_trialLoop.thisIndex,b4loop.thisRepN,b4loop.thisTrialN,b4loop.thisN,b4loop.thisIndex,b4_trialLoop.thisRepN,b4_trialLoop.thisTrialN,b4_trialLoop.thisN,b4_trialLoop.thisIndex,b1_trialLoop.thisRepN,b1_trialLoop.thisTrialN,b1_trialLoop.thisN,b1_trialLoop.thisIndex,b2loop.thisTrial,b2_trialLoop.thisRepN,b2_trialLoop.thisTrialN,b2_trialLoop.thisN,b2_trialLoop.thisIndex,GenInstrAbsTime,GenInstrTime,triggerClock,triggerAbsClock,SemInstr_startAbstime,SemInstr_starttime,FixDur,startfixtime,Img_startAbstime,Img_starttime,key_resp_2.keys,RespgetAbsTime,RespgetTime,key_resp_2.rt,ActInstr_startAbstime,ActInstr_starttime,startfixAbstime,startFixtime,date,frameRate,expName,session,participant
,,,,,,,,,,0,0,0,0,,,,,,,,,,,,,,,,,,,,,,,,,,,,,,,,,,,,,,1394740824,6.415366431,49.03582989,1394740867,,,,,,,,,,,,,,,2014_Mar_13_2000,60.00615822,semact_fmri_builder,2,kw
3,object,trial_images_objects\r_pincer.png,n,n,pincer,119,,,,,,,,0,0,0,2,,,,,,,,,0,0,0,0,0,0,0,10,,,,,,,,,,,,,,,,,,,,,,1394740867,49.06685657,1,53.08830639,1394740872,54.08302626,None,,,,,,,,2014_Mar_13_2000,60.00615822,semact_fmri_builder,2,kw
3,object,trial_images_objects\r_rake.png,n,n,rake,112,,,,,,,,0,0,0,2,,,,,,,,,0,0,0,0,0,1,1,4,,,,,,,,,,,,,,,,,,,,,,,,1,57.0704506,1394740876,58.07831782,3,1394740877,59.00269938,0.924063715,,,,,2014_Mar_13_2000,60.00615822,semact_fmri_builder,2,kw
3,object,trial_images_objects\r_key.png,n,n,key,108,,,,,,,,0,0,0,2,,,,,,,,,0,0,0,0,0,2,2,5,,,,,,,,,,,,,,,,,,,,,,,,2,61.06902168,1394740881,63.07628733,None,,,,,,,,2014_Mar_13_2000,60.00615822,semact_fmri_builder,2,kw
3,animal,trial_images_animals\r_pony.png,n,n,pony,81,,,,,,,,0,0,0,2,,,,,,,,,0,0,0,0,0,3,3,12,,,,,,,,,,,,,,,,,,,,,,,,1,66.06704492,1394740885,67.07840958,None,,,,,,,,2014_Mar_13_2000,60.00615822,semact_fmri_builder,2,kw
3,object,trial_images_objects\r_hammer.png,n,v,hammer,107,,,,,,,,0,0,0,2,,,,,,,,,0,0,0,0,0,4,4,13,,,,,,,,,,,,,,,,,,,,,,,,2,70.06559969,1394740890,72.07586867,None,,,,,,,,2014_Mar_13_2000,60.00615822,semact_fmri_builder,2,kw
3,object,trial_images_objects\r_hairbrush.png,n,n,hairbrush,106,,,,,,,,0,0,0,2,,,,,,,,,0,0,0,0,0,5,5,2,,,,,,,,,,,,,,,,,,,,,,,,3,75.06375302,1394740896,78.07165133,None,,,,,,,,2014_Mar_13_2000,60.00615822,semact_fmri_builder,2,kw
3,animal,trial_images_animals\r_grasshopper_common.png,n,v,grasshopper_common,70,,,,,,,,0,0,0,2,,,,,,,,,0,0,0,0,0,6,6,11,,,,,,,,,,,,,,,,,,,,,,,,3,81.06152512,1394740902,84.06868784,None,,,,,,,,2014_Mar_13_2000,60.00615822,semact_fmri_builder,2,kw
3,animal,trial_images_animals\r_fox2.png,n,n,fox2,74,,,,,,,,0,0,0,2,,,,,,,,,0,0,0,0,0,7,7,3,,,,,,,,,,,,,,,,,,,,,,,,4,87.05929542,1394740909,91.06874519,None,,,,,,,,2014_Mar_13_2000,60.00615822,semact_fmri_builder,2,kw
3,object,trial_images_objects\r_chopsticks.png,f,n,chopsticks,96,,,,,,,,0,0,0,2,,,,,,,,,0,0,0,0,0,8,8,0,,,,,,,,,,,,,,,,,,,,,,,,2,94.05671255,1394740914,96.06332199,3,1394740915,96.97178982,0.908206731,,,,,2014_Mar_13_2000,60.00615822,semact_fmri_builder,2,kw
3,object,trial_images_objects\r_squeezer.png,n,n,squeezer,101,,,,,,,,0,0,0,2,,,,,,,,,0,0,0,0,0,9,9,1,,,,,,,,,,,,,,,,,,,,,,,,1,99.07159549,1394740918,100.0825065,None,,,,,,,,2014_Mar_13_2000,60.00615822,semact_fmri_builder,2,kw
3,object,trial_images_objects\r_scoop.png,n,n,scoop,110,,,,,,,,0,0,0,2,,,,,,,,,0,0,0,0,0,10,10,6,,,,,,,,,,,,,,,,,,,,,,,,2,103.0700784,1394740923,105.0779131,None,,,,,,,,2014_Mar_13_2000,60.00615822,semact_fmri_builder,2,kw
3,animal,trial_images_animals\r_penguin.png,f,n,penguin,84,,,,,,,,0,0,0,2,,,,,,,,,0,0,0,0,0,11,11,7,,,,,,,,,,,,,,,,,,,,,,,,2,108.0682321,1394740928,110.0757199,None,,,,,,,,2014_Mar_13_2000,60.00615822,semact_fmri_builder,2,kw
3,animal,trial_images_animals\r_badger2.png,n,n,badger2,61,,,,,,,,0,0,0,2,,,,,,,,,0,0,0,0,0,12,12,9,,,,,,,,,,,,,,,,,,,,,,,,3,113.0663634,1394740934,116.0797576,None,,,,,,,,2014_Mar_13_2000,60.00615822,semact_fmri_builder,2,kw
3,animal,trial_images_animals\r_beaver.png,n,n,beaver,63,,,,,,,,0,0,0,2,,,,,,,,,0,0,0,0,0,13,13,14,,,,,,,,,,,,,,,,,,,,,,,,2,119.0641756,1394740939,121.0750694,None,,,,,,,,2014_Mar_13_2000,60.00615822,semact_fmri_builder,2,kw
3,animal,trial_images_animals\r_vole.png,n,n,vole,79,,,,,,,,0,0,0,2,,,,,,,,,0,0,0,0,0,14,14,8,,,,,,,,,,,,,,,,,,,,,,,,3,124.0622972,1394740945,127.0719278,None,,,,,,,,2014_Mar_13_2000,60.00615822,semact_fmri_builder,2,kw
3,,,,,,,,,,,,,,0,0,0,2,,,,,,,,,0,0,0,0,,,,,,,,,,,,,,,,,,,,,,,,,,,,,,,,,,,,,,,,2014_Mar_13_2000,60.00615822,semact_fmri_builder,2,kw
3,,,,,,,,,,,,,,0,0,0,2,,,,,,,,,,,,,,,,,,,,,,,,,,,,,,,,,,,,,,,,,,,,,,,,,,,,2014_Mar_13_2000,60.00615822,semact_fmri_builder,2,kw
4,animal,trial_images_animals\r_otter.png,n,n,,86,otter,,,,,,,0,1,1,3,,,,,,,,,,,,,,,,,0,0,0,0,0,0,0,1,,,,,,,,,,,,,,,,2,139.0912729,1394740959,141.0851609,None,,,,1394740952,134.0775988,1394740957,,2014_Mar_13_2000,60.00615822,semact_fmri_builder,2,kw
4,object,trial_images_objects\r_potatomasher.png,n,v,,118,potatomasher,,,,,,,0,1,1,3,,,,,,,,,,,,,,,,,0,0,0,0,0,1,1,4,,,,,,,,,,,,,,,,4,144.0716776,1394740966,148.0776194,None,,,,,,1394740962,,2014_Mar_13_2000,60.00615822,semact_fmri_builder,2,kw
4,animal,trial_images_animals\r_moth.png,n,n,,66,moth,,,,,,,0,1,1,3,,,,,,,,,,,,,,,,,0,0,0,0,0,2,2,7,,,,,,,,,,,,,,,,3,151.069003,1394740972,154.0780715,None,,,,,,1394740969,,2014_Mar_13_2000,60.00615822,semact_fmri_builder,2,kw
4,animal,trial_images_animals\r_sheep_blackfaced.png,n,n,,87,sheep_blackfaced,,,,,,,0,1,1,3,,,,,,,,,,,,,,,,,0,0,0,0,0,3,3,13,,,,,,,,,,,,,,,,3,157.066795,1394740978,160.0769091,None,,,,,,1394740975,,2014_Mar_13_2000,60.00615822,semact_fmri_builder,2,kw
4,object,trial_images_objects\r_tin_opener.png,n,n,,95,tin_opener,,,,,,,0,1,1,3,,,,,,,,,,,,,,,,,0,0,0,0,0,4,4,8,,,,,,,,,,,,,,,,2,163.0645743,1394740983,165.0752128,None,,,,,,1394740981,,2014_Mar_13_2000,60.00615822,semact_fmri_builder,2,kw
4,animal,trial_images_animals\r_wallaby.png,f,v,,83,wallaby,,,,,,,0,1,1,3,,,,,,,,,,,,,,,,,0,0,0,0,0,5,5,14,,,,,,,,,,,,,,,,4,168.0794141,1394740990,172.0880646,3,1394740991,172.8938372,0.805458396,,,1394740986,,2014_Mar_13_2000,60.00615822,semact_fmri_builder,2,kw
4,object,trial_images_objects\r_whisk.png,n,n,,116,whisk,,,,,,,0,1,1,3,,,,,,,,,,,,,,,,,0,0,0,0,0,6,6,11,,,,,,,,,,,,,,,,2,175.0769435,1394740995,177.0861621,None,,,,,,1394740993,,2014_Mar_13_2000,60.00615822,semact_fmri_builder,2,kw
4,object,trial_images_objects\r_screwdriver.png,n,n,,115,screwdriver,,,,,,,0,1,1,3,,,,,,,,,,,,,,,,,0,0,0,0,0,7,7,10,,,,,,,,,,,,,,,,1,180.0749716,1394740999,181.0840314,None,,,,,,1394740998,,2014_Mar_13_2000,60.00615822,semact_fmri_builder,2,kw
4,animal,trial_images_animals\r_hare.png,n,v,,78,hare,,,,,,,0,1,1,3,,,,,,,,,,,,,,,,,0,0,0,0,0,8,8,3,,,,,,,,,,,,,,,,3,184.0735318,1394741005,187.0820241,3,1394741007,188.9378959,1.855579314,,,1394741002,,2014_Mar_13_2000,60.00615822,semact_fmri_builder,2,kw
4,object,trial_images_objects\r_mop.png,n,n,,93,mop,,,,,,,0,1,1,3,,,,,,,,,,,,,,,,,0,0,0,0,0,9,9,0,,,,,,,,,,,,,,,,2,190.071367,1394741010,192.0797434,None,,,,,,1394741008,,2014_Mar_13_2000,60.00615822,semact_fmri_builder,2,kw
4,object,trial_images_objects\r_stapler.png,n,n,,97,stapler,,,,,,,0,1,1,3,,,,,,,,,,,,,,,,,0,0,0,0,0,10,10,6,,,,,,,,,,,,,,,,1,195.069431,1394741014,196.0791977,3,1394741015,197.2514501,1.171987342,,,1394741013,,2014_Mar_13_2000,60.00615822,semact_fmri_builder,2,kw
4,object,trial_images_objects\r_teapot.png,n,n,,109,teapot,,,,,,,0,1,1,3,,,,,,,,,,,,,,,,,0,0,0,0,0,11,11,9,,,,,,,,,,,,,,,,3,199.0680368,1394741020,202.0779088,None,,,,,,1394741017,,2014_Mar_13_2000,60.00615822,semact_fmri_builder,2,kw
4,animal,trial_images_animals\r_swan2.png,n,n,,90,swan2,,,,,,,0,1,1,3,,,,,,,,,,,,,,,,,0,0,0,0,0,12,12,12,,,,,,,,,,,,,,,,3,205.0658294,1394741026,208.0764328,None,,,,,,1394741023,,2014_Mar_13_2000,60.00615822,semact_fmri_builder,2,kw
4,animal,trial_images_animals\r_duck_mallard.png,n,n,,73,duck_mallard,,,,,,,0,1,1,3,,,,,,,,,,,,,,,,,0,0,0,0,0,13,13,2,,,,,,,,,,,,,,,,4,211.0802454,1394741033,215.0906113,None,,,,,,1394741029,,2014_Mar_13_2000,60.00615822,semact_fmri_builder,2,kw
4,object,trial_images_objects\r_pencil.png,n,n,,111,pencil,,,,,,,0,1,1,3,,,,,,,,,,,,,,,,,0,0,0,0,0,14,14,5,,,,,,,,,,,,,,,,4,218.0776148,1394741040,222.0844407,None,,,,,,1394741036,,2014_Mar_13_2000,60.00615822,semact_fmri_builder,2,kw
4,,,,,,,,,,,,,,0,1,1,3,,,,,,,,,,,,,,,,,0,0,0,0,,,,,,,,,,,,,,,,,,,,,,,,,,,,,,,,2014_Mar_13_2000,60.00615822,semact_fmri_builder,2,kw
4,,,,,,,,,,,,,,0,1,1,3,,,,,,,,,,,,,,,,,,,,,,,,,,,,,,,,,,,,,,,,,,,,,,,,,,,,2014_Mar_13_2000,60.00615822,semact_fmri_builder,2,kw
1,object,trial_images_objects\r_bottle_cleaner.png,n,n,,98,,bottle_cleaner,,,,,,0,2,2,0,0,0,0,0,,,,,,,,,,,,,,,,,,,,,0,0,0,6,,,,,,,,,,1394741047,229.0782786,2,,1394741053,235.0960203,3,1394741055,237.2367808,2.14040407,,,,233.1057085,2014_Mar_13_2000,60.00615822,semact_fmri_builder,2,kw
1,object,trial_images_objects\r_scissors.png,n,n,,114,,scissors,,,,,,0,2,2,0,0,0,0,0,,,,,,,,,,,,,,,,,,,,,0,1,1,12,,,,,,,,,,,,3,,1394741059,241.0942026,None,,,,,,,238.0869907,2014_Mar_13_2000,60.00615822,semact_fmri_builder,2,kw
1,object,trial_images_objects\r_nailclipper.png,n,n,,113,,nailclipper,,,,,,0,2,2,0,0,0,0,0,,,,,,,,,,,,,,,,,,,,,0,2,2,8,,,,,,,,,,,,2,,1394741064,246.0917818,3,1394741065,246.9664635,0.874410351,,,,244.0846091,2014_Mar_13_2000,60.00615822,semact_fmri_builder,2,kw
1,animal,trial_images_animals\r_toad.png,n,v,,75,,toad,,,,,,0,2,2,0,0,0,0,0,,,,,,,,,,,,,,,,,,,,,0,3,3,0,,,,,,,,,,,,3,,1394741070,252.0938307,3,1394741071,253.3974427,1.303334935,,,,249.0828343,2014_Mar_13_2000,60.00615822,semact_fmri_builder,2,kw
1,animal,trial_images_animals\r_ladybird.png,n,n,,72,,ladybird,,,,,,0,2,2,0,0,0,0,0,,,,,,,,,,,,,,,,,,,,,0,4,4,10,,,,,,,,,,,,1,,1394741074,256.0909182,None,,,,,,,255.0806411,2014_Mar_13_2000,60.00615822,semact_fmri_builder,2,kw
1,animal,trial_images_animals\r_koala.png,f,n,,88,,koala,,,,,,0,2,2,0,0,0,0,0,,,,,,,,,,,,,,,,,,,,,0,5,5,11,,,,,,,,,,,,4,,1394741081,263.091387,3,1394741083,265.0265193,1.934850956,,,,259.0790516,2014_Mar_13_2000,60.00615822,semact_fmri_builder,2,kw
1,animal,trial_images_animals\r_dog_terrier.png,n,n,,68,,dog_terrier,,,,,,0,2,2,0,0,0,0,0,,,,,,,,,,,,,,,,,,,,,0,6,6,2,,,,,,,,,,,,2,,1394741086,268.086007,None,,,,,,,266.0765587,2014_Mar_13_2000,60.00615822,semact_fmri_builder,2,kw
1,animal,trial_images_animals\r_jerboas.png,f,v,,82,,jerboas,,,,,,0,2,2,0,0,0,0,0,,,,,,,,,,,,,,,,,,,,,0,7,7,1,,,,,,,,,,,,2,,1394741091,273.0854564,None,,,,,,,271.0746278,2014_Mar_13_2000,60.00615822,semact_fmri_builder,2,kw
1,animal,trial_images_animals\r_giraffe.png,f,n,,67,,giraffe,,,,,,0,2,2,0,0,0,0,0,,,,,,,,,,,,,,,,,,,,,0,8,8,7,,,,,,,,,,,,1,,1394741095,277.0989563,3,1394741096,278.2882338,1.188999779,,,,276.0894425,2014_Mar_13_2000,60.00615822,semact_fmri_builder,2,kw
1,object,trial_images_objects\r_paint_roller.png,n,v,,117,,paint_roller,,,,,,0,2,2,0,0,0,0,0,,,,,,,,,,,,,,,,,,,,,0,9,9,13,,,,,,,,,,,,2,,1394741100,282.0966412,None,,,,,,,280.0880516,2014_Mar_13_2000,60.00615822,semact_fmri_builder,2,kw
1,animal,trial_images_animals\r_goat2.png,n,n,,76,,goat2,,,,,,0,2,2,0,0,0,0,0,,,,,,,,,,,,,,,,,,,,,0,10,10,9,,,,,,,,,,,,2,,1394741105,287.0954419,None,,,,,,,285.0862101,2014_Mar_13_2000,60.00615822,semact_fmri_builder,2,kw
1,object,trial_images_objects\r_handbell.png,n,v,,91,,handbell,,,,,,0,2,2,0,0,0,0,0,,,,,,,,,,,,,,,,,,,,,0,11,11,4,,,,,,,,,,,,1,,1394741109,291.0943082,3,1394741111,292.7662289,1.67164958,,,,290.0843335,2014_Mar_13_2000,60.00615822,semact_fmri_builder,2,kw
1,animal,trial_images_animals\r_deer_fallow.png,n,n,,71,,deer_fallow,,,,,,0,2,2,0,0,0,0,0,,,,,,,,,,,,,,,,,,,,,0,12,12,5,,,,,,,,,,,,1,,1394741113,295.0920924,None,,,,,,,294.0829088,2014_Mar_13_2000,60.00615822,semact_fmri_builder,2,kw
1,animal,trial_images_animals\r_highland_cow.png,n,n,,69,,highland_cow,,,,,,0,2,2,0,0,0,0,0,,,,,,,,,,,,,,,,,,,,,0,13,13,3,,,,,,,,,,,,1,,1394741117,299.096521,None,,,,,,,298.0813441,2014_Mar_13_2000,60.00615822,semact_fmri_builder,2,kw
1,object,trial_images_objects\r_tweezers.png,n,n,,103,,tweezers,,,,,,0,2,2,0,0,0,0,0,,,,,,,,,,,,,,,,,,,,,0,14,14,14,,,,,,,,,,,,3,,1394741123,305.0886022,None,,,,,,,302.0798777,2014_Mar_13_2000,60.00615822,semact_fmri_builder,2,kw
1,,,,,,,,,,,,,,0,2,2,0,0,0,0,0,,,,,,,,,,,,,,,,,,,,,,,,,,,,,,,,,,,,,,,,,,,,,,,,2014_Mar_13_2000,60.00615822,semact_fmri_builder,2,kw
1,,,,,,,,,,,,,,0,2,2,0,,,,,,,,,,,,,,,,,,,,,,,,,,,,,,,,,,,,,,,,,,,,,,,,,,,,2014_Mar_13_2000,60.00615822,semact_fmri_builder,2,kw
2,animal,trial_images_animals\r_goose_canada.png,n,n,,77,,,goose_canada,,,,,0,3,3,1,,,,,0,0,0,0,,,,,,,,,,,,,,,,,,,,,None,0,0,0,2,,,,,,,4,,1394741139,321.1002147,None,,,,1394741130,312.0950655,,317.108688,2014_Mar_13_2000,60.00615822,semact_fmri_builder,2,kw
