selectBlock,category,paths,semantic,action,image3,number,image4,image2,image1,trigger_loop.thisRepN,trigger_loop.thisTrialN,trigger_loop.thisN,trigger_loop.thisIndex,blockSelectLoop.thisRepN,blockSelectLoop.thisTrialN,blockSelectLoop.thisN,blockSelectLoop.thisIndex,b1loop.thisRepN,b1loop.thisTrialN,b1loop.thisN,b1loop.thisIndex,b2loop.thisRepN,b2loop.thisTrialN,b2loop.thisN,b2loop.thisIndex,b3loop.thisRepN,b3loop.thisTrialN,b3loop.thisN,b3loop.thisIndex,b3_trialLoop.thisRepN,b3_trialLoop.thisTrialN,b3_trialLoop.thisN,b3_trialLoop.thisIndex,b4loop.thisRepN,b4loop.thisTrialN,b4loop.thisN,b4loop.thisIndex,b4_trialLoop.thisRepN,b4_trialLoop.thisTrialN,b4_trialLoop.thisN,b4_trialLoop.thisIndex,b2_trialLoop.thisRepN,b2_trialLoop.thisTrialN,b2_trialLoop.thisN,b2_trialLoop.thisIndex,b1_trialLoop.thisRepN,b1_trialLoop.thisTrialN,b1_trialLoop.thisN,b1_trialLoop.thisIndex,GenInstrAbsTime,GenInstrTime,triggerClock,triggerAbsClock,SemInstr_startAbstime,SemInstr_starttime,startFixAbstime,startFixtime,Img_startAbstime,Img_starttime,key_resp_2.keys,JitDur,startJitAbstime,startJittime,ActInstr_startAbstime,ActInstr_starttime,RespgetAbsTime,Respgettime,key_resp_2.rt,date,frameRate,expName,session,participant,
,,,,,,,,,,0,0,0,0,,,,,,,,,,,,,,,,,,,,,,,,,,,,,,,,,,,,,1397060929,11.9424355504,58.8049898325,1397060976,,,,,,,,,,,,,,,,2014_Apr_09_1728,60.0187501019,semact_fmri_builder,002,sz,
3,object,trial_images_objects\r_hammer.png,n,v,hammer,107,,,,,,,,0,0,0,2,,,,,,,,,0,0,0,0,0,0,0,10,,,,,,,,,,,,,,,,,,,,,1397060976,58.8337005213,1397060979,61.8415975529,1397060979,62.3378141434,None,2.5,1397060982,64.8229894383,,,,,,2014_Apr_09_1728,60.0187501019,semact_fmri_builder,002,sz,
3,animal,trial_images_animals\r_goat2.png,n,n,goat2,76,,,,,,,,0,0,0,2,,,,,,,,,0,0,0,0,0,1,1,5,,,,,,,,,,,,,,,,,,,,,,,1397060984,67.3387311324,1397060985,67.848723686,None,2.5,1397060987,70.3374474082,,,,,,2014_Apr_09_1728,60.0187501019,semact_fmri_builder,002,sz,
3,object,trial_images_objects\r_cakeslicer.png,n,n,cakeslicer,92,,,,,,,,0,0,0,2,,,,,,,,,0,0,0,0,0,2,2,13,,,,,,,,,,,,,,,,,,,,,,,1397060990,72.8366742459,1397060990,73.3444706139,None,1.5,1397060993,75.8353826739,,,,,,2014_Apr_09_1728,60.0187501019,semact_fmri_builder,002,sz,
3,object,trial_images_objects\r_potatomasher.png,n,v,potatomasher,118,,,,,,,,0,0,0,2,,,,,,,,,0,0,0,0,0,3,3,2,,,,,,,,,,,,,,,,,,,,,,,1397060994,77.3349683989,1397060995,77.8423358528,None,1.5,1397060997,80.3336735067,,,,,,2014_Apr_09_1728,60.0187501019,semact_fmri_builder,002,sz,
3,object,trial_images_objects\r_scoop.png,n,n,scoop,110,,,,,,,,0,0,0,2,,,,,,,,,0,0,0,0,0,4,4,6,,,,,,,,,,,,,,,,,,,,,,,1397060999,81.8332640611,1397060999,82.3414546318,None,1.5,1397061002,84.8319552843,,,,,,2014_Apr_09_1728,60.0187501019,semact_fmri_builder,002,sz,
3,object,trial_images_objects\r_crosscut_saw.png,n,n,crosscut_saw,100,,,,,,,,0,0,0,2,,,,,,,,,0,0,0,0,0,5,5,7,,,,,,,,,,,,,,,,,,,,,,,1397061003,86.3315476498,1397061004,86.8395417228,None,1.5,1397061006,89.3302437023,,,,,,2014_Apr_09_1728,60.0187501019,semact_fmri_builder,002,sz,
3,object,trial_images_objects\r_rake.png,n,n,rake,112,,,,,,,,0,0,0,2,,,,,,,,,0,0,0,0,0,6,6,8,,,,,,,,,,,,,,,,,,,,,,,1397061008,90.8298553856,1397061008,91.3374048488,None,0.5,1397061011,93.828549929,,,,,,2014_Apr_09_1728,60.0187501019,semact_fmri_builder,002,sz,
3,object,trial_images_objects\r_stapler.png,n,n,stapler,97,,,,,,,,0,0,0,2,,,,,,,,,0,0,0,0,0,7,7,1,,,,,,,,,,,,,,,,,,,,,,,1397061011,94.3285506836,1397061012,94.8383600205,None,1.5,1397061014,97.3272379828,,,,,,2014_Apr_09_1728,60.0187501019,semact_fmri_builder,002,sz,
3,animal,trial_images_animals\r_jerboas.png,f,v,jerboas,82,,,,,,,,0,0,0,2,,,,,,,,,0,0,0,0,0,8,8,4,,,,,,,,,,,,,,,,,,,,,,,1397061016,98.8268113324,1397061016,99.338968982,None,2.5,1397061019,101.825548737,,,,,,2014_Apr_09_1728,60.0187501019,semact_fmri_builder,002,sz,
3,animal,trial_images_animals\r_badger2.png,n,n,badger2,61,,,,,,,,0,0,0,2,,,,,,,,,0,0,0,0,0,9,9,3,,,,,,,,,,,,,,,,,,,,,,,1397061021,104.324779499,1397061022,104.837595159,None,3.5,1397061024,107.323446273,,,,,,2014_Apr_09_1728,60.0187501019,semact_fmri_builder,002,sz,
3,animal,trial_images_animals\r_dog_terrier.png,n,n,dog_terrier,68,,,,,,,,0,0,0,2,,,,,,,,,0,0,0,0,0,10,10,11,,,,,,,,,,,,,,,,,,,,,,,1397061028,110.838973057,1397061028,111.34878179,None,0.5,1397061031,113.837650999,,,,,,2014_Apr_09_1728,60.0187501019,semact_fmri_builder,002,sz,
3,object,trial_images_objects\r_squeezer.png,n,n,squeezer,101,,,,,,,,0,0,0,2,,,,,,,,,0,0,0,0,0,11,11,12,,,,,,,,,,,,,,,,,,,,,,,1397061031,114.337615835,1397061032,114.84859148,None,1.5,1397061034,117.336342977,,,,,,2014_Apr_09_1728,60.0187501019,semact_fmri_builder,002,sz,
3,object,trial_images_objects\r_handbell.png,n,v,handbell,91,,,,,,,,0,0,0,2,,,,,,,,,0,0,0,0,0,12,12,9,,,,,,,,,,,,,,,,,,,,,,,1397061036,118.835923269,1397061036,119.346209512,None,0.5,1397061039,121.834619019,,,,,,2014_Apr_09_1728,60.0187501019,semact_fmri_builder,002,sz,
3,animal,trial_images_animals\r_pony.png,n,n,pony,81,,,,,,,,0,0,0,2,,,,,,,,,0,0,0,0,0,13,13,0,,,,,,,,,,,,,,,,,,,,,,,1397061039,122.334598042,1397061040,122.847939506,None,3.5,1397061042,125.333339068,,,,,,2014_Apr_09_1728,60.0187501019,semact_fmri_builder,002,sz,
3,,,,,,,,,,,,,,0,0,0,2,,,,,,,,,0,0,0,0,,,,,,,,,,,,,,,,,,,,,,,,,,,,,,,,,,,,,,,,2014_Apr_09_1728,60.0187501019,semact_fmri_builder,002,sz,
3,,,,,,,,,,,,,,0,0,0,2,,,,,,,,,,,,,,,,,,,,,,,,,,,,,,,,,,,,,,,,,,,,,,,,,,,,2014_Apr_09_1728,60.0187501019,semact_fmri_builder,002,sz,
4,animal,trial_images_animals\r_swan2.png,n,n,,90,swan2,,,,,,,0,1,1,3,,,,,,,,,,,,,,,,,0,0,0,0,0,0,0,5,,,,,,,,,,,,,,,1397061052,134.864375885,1397061052,135.359847233,4,2.5,1397061055,137.845512414,1397061049,131.852898129,1397061053,136.462398774,1.10217605282,2014_Apr_09_1728,60.0187501019,semact_fmri_builder,002,sz,
4,animal,trial_images_animals\r_sheep_blackfaced.png,n,n,,87,sheep_blackfaced,,,,,,,0,1,1,3,,,,,,,,,,,,,,,,,0,0,0,0,0,1,1,10,,,,,,,,,,,,,,,1397061057,140.344476651,1397061058,140.856464968,None,1.5,1397061060,143.343124107,,,,,,2014_Apr_09_1728,60.0187501019,semact_fmri_builder,002,sz,
4,animal,trial_images_animals\r_grasshopper_common.png,n,v,,70,grasshopper_common,,,,,,,0,1,1,3,,,,,,,,,,,,,,,,,0,0,0,0,0,2,2,4,,,,,,,,,,,,,,,1397061062,144.842745147,1397061062,145.352068221,4,1.5,1397061065,147.841513038,,,1397061063,146.291912176,0.939572601046,2014_Apr_09_1728,60.0187501019,semact_fmri_builder,002,sz,
4,animal,trial_images_animals\r_hedgehog.png,n,n,,80,hedgehog,,,,,,,0,1,1,3,,,,,,,,,,,,,,,,,0,0,0,0,0,3,3,12,,,,,,,,,,,,,,,1397061066,149.34104413,1397061067,149.853112133,None,1.5,1397061069,152.339737466,,,,,,2014_Apr_09_1728,60.0187501019,semact_fmri_builder,002,sz,
4,animal,trial_images_animals\r_owl_whitebarn.png,n,n,,85,owl_whitebarn,,,,,,,0,1,1,3,,,,,,,,,,,,,,,,,0,0,0,0,0,4,4,9,,,,,,,,,,,,,,,1397061071,153.839350658,1397061071,154.349176596,4,3.5,1397061074,156.838110701,,,1397061072,155.271851307,0.922401545178,2014_Apr_09_1728,60.0187501019,semact_fmri_builder,002,sz,
4,animal,trial_images_animals\r_beaver.png,n,n,,63,beaver,,,,,,,0,1,1,3,,,,,,,,,,,,,,,,,0,0,0,0,0,5,5,13,,,,,,,,,,,,,,,1397061077,160.336901078,1397061078,160.849433009,None,3.5,1397061080,163.352249023,,,,,,2014_Apr_09_1728,60.0187501019,semact_fmri_builder,002,sz,
4,object,trial_images_objects\r_tweezers.png,n,n,,103,tweezers,,,,,,,0,1,1,3,,,,,,,,,,,,,,,,,0,0,0,0,0,6,6,8,,,,,,,,,,,,,,,1397061084,166.851112747,1397061084,167.360236908,None,0.5,1397061087,169.849792198,,,,,,2014_Apr_09_1728,60.0187501019,semact_fmri_builder,002,sz,
4,object,trial_images_objects\r_whisk.png,n,n,,116,whisk,,,,,,,0,1,1,3,,,,,,,,,,,,,,,,,0,0,0,0,0,7,7,0,,,,,,,,,,,,,,,1397061087,170.34976941,1397061088,170.860003737,None,2.5,1397061090,173.348468481,,,,,,2014_Apr_09_1728,60.0187501019,semact_fmri_builder,002,sz,
4,object,trial_images_objects\r_tin_opener.png,n,n,,95,tin_opener,,,,,,,0,1,1,3,,,,,,,,,,,,,,,,,0,0,0,0,0,8,8,7,,,,,,,,,,,,,,,1397061093,175.847701959,1397061093,176.358296682,None,3.5,1397061096,178.846380806,,,,,,2014_Apr_09_1728,60.0187501019,semact_fmri_builder,002,sz,
4,object,trial_images_objects\r_computer_mouse.png,n,n,,99,computer_mouse,,,,,,,0,1,1,3,,,,,,,,,,,,,,,,,0,0,0,0,0,9,9,1,,,,,,,,,,,,,,,1397061099,182.34526898,1397061100,182.854692868,None,2.5,1397061102,185.343935452,,,,,,2014_Apr_09_1728,60.0187501019,semact_fmri_builder,002,sz,
4,animal,trial_images_animals\r_koala.png,f,n,,88,koala,,,,,,,0,1,1,3,,,,,,,,,,,,,,,,,0,0,0,0,0,10,10,11,,,,,,,,,,,,,,,1397061105,187.843161686,1397061105,188.356009039,None,0.5,1397061108,190.841865285,,,,,,2014_Apr_09_1728,60.0187501019,semact_fmri_builder,002,sz,
4,animal,trial_images_animals\r_fox2.png,n,n,,74,fox2,,,,,,,0,1,1,3,,,,,,,,,,,,,,,,,0,0,0,0,0,11,11,6,,,,,,,,,,,,,,,1397061108,191.341824084,1397061109,191.852950951,None,0.5,1397061111,194.340524966,,,,,,2014_Apr_09_1728,60.0187501019,semact_fmri_builder,002,sz,
4,object,trial_images_objects\r_shisha.png,f,n,,120,shisha,,,,,,,0,1,1,3,,,,,,,,,,,,,,,,,0,0,0,0,0,12,12,3,,,,,,,,,,,,,,,1397061112,194.840502479,1397061112,195.350780573,4,2.5,1397061115,197.839270369,,,1397061114,197.489239868,2.1381758681,2014_Apr_09_1728,60.0187501019,semact_fmri_builder,002,sz,
4,object,trial_images_objects\r_nailclipper.png,n,n,,113,nailclipper,,,,,,,0,1,1,3,,,,,,,,,,,,,,,,,0,0,0,0,0,13,13,2,,,,,,,,,,,,,,,1397061117,200.338466721,1397061118,200.845762035,None,1.5,1397061120,203.337134099,,,,,,2014_Apr_09_1728,60.0187501019,semact_fmri_builder,002,sz,
4,,,,,,,,,,,,,,0,1,1,3,,,,,,,,,,,,,,,,,0,0,0,0,,,,,,,,,,,,,,,,,,,,,,,,,,,,,,,,2014_Apr_09_1728,60.0187501019,semact_fmri_builder,002,sz,
4,,,,,,,,,,,,,,0,1,1,3,,,,,,,,,,,,,,,,,,,,,,,,,,,,,,,,,,,,,,,,,,,,,,,,,,,,2014_Apr_09_1728,60.0187501019,semact_fmri_builder,002,sz,
2,animal,trial_images_animals\r_moth.png,n,n,,66,,moth,,,,,,0,2,2,1,,,,,0,0,0,0,,,,,,,,,,,,,,,,,0,0,0,12,,,,,,,,,,,1397061128,210.88537306,1397061128,211.378332801,4,0.5,,213.866612517,1397061125,207.861403066,1397061129,212.083743005,0.705075162609,2014_Apr_09_1728,60.0187501019,semact_fmri_builder,002,sz,
2,animal,trial_images_animals\r_hare.png,n,v,,78,,hare,,,,,,0,2,2,1,,,,,0,0,0,0,,,,,,,,,,,,,,,,,0,1,1,6,,,,,,,,,,,1397061131,214.366347954,1397061132,214.87581742,4,1.5,,217.365104676,,,1397061133,216.182179868,1.30608203942,2014_Apr_09_1728,60.0187501019,semact_fmri_builder,002,sz,
2,animal,trial_images_animals\r_vole.png,n,n,,79,,vole,,,,,,0,2,2,1,,,,,0,0,0,0,,,,,,,,,,,,,,,,,0,2,2,0,,,,,,,,,,,1397061136,218.864662934,1397061136,219.375305349,None,2.5,,221.863365325,,,,,,2014_Apr_09_1728,60.0187501019,semact_fmri_builder,002,sz,
2,object,trial_images_objects\r_pencil.png,n,n,,111,,pencil,,,,,,0,2,2,1,,,,,0,0,0,0,,,,,,,,,,,,,,,,,0,3,3,8,,,,,,,,,,,1397061141,224.362588843,1397061142,224.87136136,None,0.5,,227.361288517,,,,,,2014_Apr_09_1728,60.0187501019,semact_fmri_builder,002,sz,
2,object,trial_images_objects\r_paint_roller.png,n,v,,117,,paint_roller,,,,,,0,2,2,1,,,,,0,0,0,0,,,,,,,,,,,,,,,,,0,4,4,1,,,,,,,,,,,1397061145,227.861253051,1397061145,228.369905135,None,1.5,,230.859979891,,,,,,2014_Apr_09_1728,60.0187501019,semact_fmri_builder,002,sz,
2,animal,trial_images_animals\r_toad.png,n,v,,75,,toad,,,,,,0,2,2,1,,,,,0,0,0,0,,,,,,,,,,,,,,,,,0,5,5,10,,,,,,,,,,,1397061149,232.359573766,1397061150,232.870995229,4,3.5,,235.358398402,,,1397061150,233.508949698,0.63768884977,2014_Apr_09_1728,60.0187501019,semact_fmri_builder,002,sz,
2,object,trial_images_objects\r_bottle_cleaner.png,n,n,,98,,bottle_cleaner,,,,,,0,2,2,1,,,,,0,0,0,0,,,,,,,,,,,,,,,,,0,6,6,5,,,,,,,,,,,1397061156,238.857145315,1397061156,239.364905462,4,0.5,,241.855924072,,,1397061158,241.306043102,1.9408554197,2014_Apr_09_1728,60.0187501019,semact_fmri_builder,002,sz,
2,animal,trial_images_animals\r_deer_fallow.png,n,n,,71,,deer_fallow,,,,,,0,2,2,1,,,,,0,0,0,0,,,,,,,,,,,,,,,,,0,7,7,2,,,,,,,,,,,1397061159,242.355830652,1397061160,242.865400027,None,0.5,,245.354523385,,,,,,2014_Apr_09_1728,60.0187501019,semact_fmri_builder,002,sz,
2,animal,trial_images_animals\r_bulldog_whiteenglish.png,n,n,,65,,bulldog_whiteenglish,,,,,,0,2,2,1,,,,,0,0,0,0,,,,,,,,,,,,,,,,,0,8,8,3,,,,,,,,,,,1397061163,245.854479467,1397061163,246.365908174,None,1.5,,248.853232567,,,,,,2014_Apr_09_1728,60.0187501019,semact_fmri_builder,002,sz,
2,object,trial_images_objects\r_key.png,n,n,,108,,key,,,,,,0,2,2,1,,,,,0,0,0,0,,,,,,,,,,,,,,,,,0,9,9,4,,,,,,,,,,,1397061167,250.352808633,1397061168,250.860735396,None,2.5,,253.368141787,,,,,,2014_Apr_09_1728,60.0187501019,semact_fmri_builder,002,sz,
2,animal,trial_images_animals\r_duck_mallard.png,n,n,,73,,duck_mallard,,,,,,0,2,2,1,,,,,0,0,0,0,,,,,,,,,,,,,,,,,0,10,10,7,,,,,,,,,,,1397061173,255.867384321,1397061173,256.378585742,None,0.5,,258.866091239,,,,,,2014_Apr_09_1728,60.0187501019,semact_fmri_builder,002,sz,
2,animal,trial_images_animals\r_otter.png,n,n,,86,,otter,,,,,,0,2,2,1,,,,,0,0,0,0,,,,,,,,,,,,,,,,,0,11,11,13,,,,,,,,,,,1397061176,259.366066036,1397061177,259.877900415,None,2.5,,262.364781406,,,,,,2014_Apr_09_1728,60.0187501019,semact_fmri_builder,002,sz,
2,object,trial_images_objects\r_pincer.png,n,n,,119,,pincer,,,,,,0,2,2,1,,,,,0,0,0,0,,,,,,,,,,,,,,,,,0,12,12,11,,,,,,,,,,,1397061182,264.863988926,1397061182,265.372734278,None,1.5,,267.862669585,,,,,,2014_Apr_09_1728,60.0187501019,semact_fmri_builder,002,sz,
2,animal,trial_images_animals\r_crow.png,n,n,,64,,crow,,,,,,0,2,2,1,,,,,0,0,0,0,,,,,,,,,,,,,,,,,0,13,13,9,,,,,,,,,,,1397061186,269.362293945,1397061187,269.872410857,4,3.5,,272.361057006,,,1397061188,270.861584169,0.988885659204,2014_Apr_09_1728,60.0187501019,semact_fmri_builder,002,sz,
2,,,,,,,,,,,,,,0,2,2,1,,,,,0,0,0,0,,,,,,,,,,,,,,,,,,,,,,,,,,,,,,,,,,,,,,,,,,,,2014_Apr_09_1728,60.0187501019,semact_fmri_builder,002,sz,
2,,,,,,,,,,,,,,0,2,2,1,,,,,,,,,,,,,,,,,,,,,,,,,,,,,,,,,,,,,,,,,,,,,,,,,,,,2014_Apr_09_1728,60.0187501019,semact_fmri_builder,002,sz,
1,animal,trial_images_animals\r_wallaby.png,f,v,,83,,,wallaby,,,,,0,3,3,0,0,0,0,0,,,,,,,,,,,,,,,,,,,,,,,,,0,0,0,9,,,,,1397061196,278.870950255,1397061199,281.891208225,1397061199,282.38473814,4,0.5,,284.873136178,,,1397061200,283.306860182,0.921797865812,2014_Apr_09_1728,60.0187501019,semact_fmri_builder,002,sz,
1,object,trial_images_objects\r_chopsticks.png,f,n,,96,,,chopsticks,,,,,0,3,3,0,0,0,0,0,,,,,,,,,,,,,,,,,,,,,,,,,0,1,1,4,,,,,,,1397061202,285.372899686,1397061203,285.880347731,4,1.5,,288.371727945,,,1397061203,286.588950193,0.708338955098,2014_Apr_09_1728,60.0187501019,semact_fmri_builder,002,sz,
1,object,trial_images_objects\r_mop.png,n,n,,93,,,mop,,,,,0,3,3,0,0,0,0,0,,,,,,,,,,,,,,,,,,,,,,,,,0,2,2,3,,,,,,,1397061207,289.871233682,1397061207,290.379423347,None,0.5,,292.869896834,,,,,,2014_Apr_09_1728,60.0187501019,semact_fmri_builder,002,sz,
1,object,trial_images_objects\r_garden clippers.png,n,n,,105,,,garden_clippers,,,,,0,3,3,0,0,0,0,0,,,,,,,,,,,,,,,,,,,,,,,,,0,3,3,10,,,,,,,1397061210,293.369865896,1397061211,293.87719894,None,2.5,,296.368585794,,,,,,2014_Apr_09_1728,60.0187501019,semact_fmri_builder,002,sz,
1,object,trial_images_objects\r_cutteknife.png,n,n,,102,,,cutterknife,,,,,0,3,3,0,0,0,0,0,,,,,,,,,,,,,,,,,,,,,,,,,0,4,4,0,,,,,,,1397061216,298.867793917,1397061216,299.376503954,None,0.5,,301.883194381,,,,,,2014_Apr_09_1728,60.0187501019,semact_fmri_builder,002,sz,
1,animal,trial_images_animals\r_penguin.png,f,n,,84,,,penguin,,,,,0,3,3,0,0,0,0,0,,,,,,,,,,,,,,,,,,,,,,,,,0,5,5,2,,,,,,,1397061219,302.383158312,1397061220,302.891917246,4,1.5,,305.381922278,,,1397061221,303.632456459,0.740277819281,2014_Apr_09_1728,60.0187501019,semact_fmri_builder,002,sz,
1,object,trial_images_objects\r_african_sickle.png,f,n,,94,,,african_sickle,,,,,0,3,3,0,0,0,0,0,,,,,,,,,,,,,,,,,,,,,,,,,0,6,6,5,,,,,,,1397061224,306.881416848,1397061224,307.388833501,4,0.5,,309.880200132,,,1397061226,308.68055431,1.29145156816,2014_Apr_09_1728,60.0187501019,semact_fmri_builder,002,sz,
1,animal,trial_images_animals\r_highland_cow.png,n,n,,69,,,highland_cow,,,,,0,3,3,0,0,0,0,0,,,,,,,,,,,,,,,,,,,,,,,,,0,7,7,6,,,,,,,1397061227,310.380106411,1397061228,310.892843592,None,1.5,,313.37877892,,,,,,2014_Apr_09_1728,60.0187501019,semact_fmri_builder,002,sz,
1,animal,trial_images_animals\r_robin.png,n,n,,62,,,robin,,,,,0,3,3,0,0,0,0,0,,,,,,,,,,,,,,,,,,,,,,,,,0,8,8,13,,,,,,,1397061232,314.878393018,1397061232,315.390055952,None,0.5,,317.877092089,,,,,,2014_Apr_09_1728,60.0187501019,semact_fmri_builder,002,sz,
1,animal,trial_images_animals\r_ladybird.png,n,n,,72,,,ladybird,,,,,0,3,3,0,0,0,0,0,,,,,,,,,,,,,,,,,,,,,,,,,0,9,9,12,,,,,,,1397061235,318.377054811,1397061236,318.887227261,None,2.5,,321.375785576,,,,,,2014_Apr_09_1728,60.0187501019,semact_fmri_builder,002,sz,
1,animal,trial_images_animals\r_goose_canada.png,n,n,,77,,,goose_canada,,,,,0,3,3,0,0,0,0,0,,,,,,,,,,,,,,,,,,,,,,,,,0,10,10,11,,,,,,,1397061241,323.875005471,1397061241,324.384884533,None,3.5,,326.873693977,,,,,,2014_Apr_09_1728,60.0187501019,semact_fmri_builder,002,sz,
1,object,trial_images_objects\r_scissors.png,n,n,,114,,,scissors,,,,,0,3,3,0,0,0,0,0,,,,,,,,,,,,,,,,,,,,,,,,,0,11,11,7,,,,,,,1397061247,330.372583358,1397061248,330.880479333,None,2.5,,333.371237757,,,,,,2014_Apr_09_1728,60.0187501019,semact_fmri_builder,002,sz,
1,animal,trial_images_animals\r_polecat.png,n,n,,89,,,polecat,,,,,0,3,3,0,0,0,0,0,,,,,,,,,,,,,,,,,,,,,,,,,0,12,12,8,,,,,,,1397061253,335.870476065,1397061253,336.381159227,None,1.5,,338.869157931,,,,,,2014_Apr_09_1728,60.0187501019,semact_fmri_builder,002,sz,
1,object,trial_images_objects\r_hairbrush.png,n,n,,106,,,hairbrush,,,,,0,3,3,0,0,0,0,0,,,,,,,,,,,,,,,,,,,,,,,,,0,13,13,1,,,,,,,1397061257,340.368785008,1397061258,340.877542433,None,1.5,,343.367466874,,,,,,2014_Apr_09_1728,60.0187501019,semact_fmri_builder,002,sz,
1,,,,,,,,,,,,,,0,3,3,0,0,0,0,0,,,,,,,,,,,,,,,,,,,,,,,,,,,,,,,,,,,,,,,,,,,,,,,,2014_Apr_09_1728,60.0187501019,semact_fmri_builder,002,sz,
1,,,,,,,,,,,,,,0,3,3,0,,,,,,,,,,,,,,,,,,,,,,,,,,,,,,,,,,,,,,,,,,,,,,,,,,,,2014_Apr_09_1728,60.0187501019,semact_fmri_builder,002,sz,
