selectBlock,category,paths,semantic,action,image3,number,image2,image1,image4,trigger_loop.thisRepN,trigger_loop.thisTrialN,trigger_loop.thisN,trigger_loop.thisIndex,blockSelectLoop.thisRepN,blockSelectLoop.thisTrialN,blockSelectLoop.thisN,blockSelectLoop.thisIndex,b1loop.thisRepN,b1loop.thisTrialN,b1loop.thisN,b1loop.thisIndex,b2loop.thisRepN,b2loop.thisTrialN,b2loop.thisN,b2loop.thisIndex,b3loop.thisRepN,b3loop.thisTrialN,b3loop.thisN,b3loop.thisIndex,b3_trialLoop.thisRepN,b3_trialLoop.thisTrialN,b3_trialLoop.thisN,b3_trialLoop.thisIndex,b4loop.thisRepN,b4loop.thisTrialN,b4loop.thisN,b4loop.thisIndex,b2_trialLoop.thisRepN,b2_trialLoop.thisTrialN,b2_trialLoop.thisN,b2_trialLoop.thisIndex,b1_trialLoop.thisRepN,b1_trialLoop.thisTrialN,b1_trialLoop.thisN,b1_trialLoop.thisIndex,b4_trialLoop.thisRepN,b4_trialLoop.thisTrialN,b4_trialLoop.thisN,b4_trialLoop.thisIndex,GenInstrAbsTime,GenInstrTime,triggerClock,triggerAbsClock,SemInstr_startAbstime,SemInstr_starttime,startFixAbstime,startFixtime,Img_startAbstime,Img_starttime,key_resp_2.keys,JitDur,startJitAbstime,startJittime,RespgetAbsTime,Respgettime,key_resp_2.rt,ActInstr_startAbstime,ActInstr_starttime,date,frameRate,expName,session,participant,
,,,,,,,,,,0,0,0,0,,,,,,,,,,,,,,,,,,,,,,,,,,,,,,,,,,,,,1397147500,21.1310963325,63.2608467699,1397147543,,,,,,,,,,,,,,,,2014_Apr_10_1731,60.0262895181,semact_fmri_builder,002,dm,
3,object,trial_images_objects\r_pencil.png,n,n,pencil,111,,,,,,,,0,0,0,2,,,,,,,,,0,0,0,0,0,0,0,5,,,,,,,,,,,,,,,,,,,,,1397147543,63.2917978278,1397147546,66.3142107981,1397147546,66.807905858,None,2.5,1397147549,69.295354987,,,,,,2014_Apr_10_1731,60.0262895181,semact_fmri_builder,002,dm,
3,animal,trial_images_animals\r_koala.png,f,n,koala,88,,,,,,,,0,0,0,2,,,,,,,,,0,0,0,0,0,1,1,12,,,,,,,,,,,,,,,,,,,,,,,1397147551,71.794381409,1397147552,72.3071960862,3,2.5,1397147554,74.793204845,1397147553,73.2435900957,0.936072854001,,,2014_Apr_10_1731,60.0262895181,semact_fmri_builder,002,dm,
3,object,trial_images_objects\r_rake.png,n,n,rake,112,,,,,,,,0,0,0,2,,,,,,,,,0,0,0,0,0,2,2,3,,,,,,,,,,,,,,,,,,,,,,,1397147557,77.2922717132,1397147557,77.801086737,None,2.5,1397147560,80.2909460414,,,,,,2014_Apr_10_1731,60.0262895181,semact_fmri_builder,002,dm,
3,animal,trial_images_animals\r_vole.png,n,n,vole,79,,,,,,,,0,0,0,2,,,,,,,,,0,0,0,0,0,3,3,11,,,,,,,,,,,,,,,,,,,,,,,1397147562,82.7901544716,1397147563,83.3010292369,None,3.5,1397147565,85.7887989177,,,,,,2014_Apr_10_1731,60.0262895181,semact_fmri_builder,002,dm,
3,object,trial_images_objects\r_pincer.png,n,n,pincer,119,,,,,,,,0,0,0,2,,,,,,,,,0,0,0,0,0,4,4,6,,,,,,,,,,,,,,,,,,,,,,,1397147569,89.2876840796,1397147569,89.7962681974,None,2.5,1397147572,92.2863363735,,,,,,2014_Apr_10_1731,60.0262895181,semact_fmri_builder,002,dm,
3,animal,trial_images_animals\r_otter.png,n,n,otter,86,,,,,,,,0,0,0,2,,,,,,,,,0,0,0,0,0,5,5,1,,,,,,,,,,,,,,,,,,,,,,,1397147574,94.7855571791,1397147575,95.2980860159,3,1.5,1397147577,97.7843178329,1397147576,96.2680353404,0.969675255664,,,2014_Apr_10_1731,60.0262895181,semact_fmri_builder,002,dm,
3,object,trial_images_objects\r_stapler.png,n,n,stapler,97,,,,,,,,0,0,0,2,,,,,,,,,0,0,0,0,0,6,6,4,,,,,,,,,,,,,,,,,,,,,,,1397147579,99.2838326285,1397147579,99.7944064615,None,2.5,1397147582,102.282487941,,,,,,2014_Apr_10_1731,60.0262895181,semact_fmri_builder,002,dm,
3,object,trial_images_objects\r_key.png,n,n,key,108,,,,,,,,0,0,0,2,,,,,,,,,0,0,0,0,0,7,7,8,,,,,,,,,,,,,,,,,,,,,,,1397147584,104.781723536,1397147585,105.289801472,None,1.5,1397147587,107.780364361,,,,,,2014_Apr_10_1731,60.0262895181,semact_fmri_builder,002,dm,
3,object,trial_images_objects\r_bottle_cleaner.png,n,n,bottle_cleaner,98,,,,,,,,0,0,0,2,,,,,,,,,0,0,0,0,0,8,8,10,,,,,,,,,,,,,,,,,,,,,,,1397147589,109.296640816,1397147589,109.804087911,None,1.5,1397147592,112.295316654,,,,,,2014_Apr_10_1731,60.0262895181,semact_fmri_builder,002,dm,
3,object,trial_images_objects\r_screwdriver.png,n,n,screwdriver,115,,,,,,,,0,0,0,2,,,,,,,,,0,0,0,0,0,9,9,9,,,,,,,,,,,,,,,,,,,,,,,1397147593,113.794944035,1397147594,114.304712262,None,2.5,1397147596,116.793590292,,,,,,2014_Apr_10_1731,60.0262895181,semact_fmri_builder,002,dm,
3,animal,trial_images_animals\r_polecat.png,n,n,polecat,89,,,,,,,,0,0,0,2,,,,,,,,,0,0,0,0,0,10,10,7,,,,,,,,,,,,,,,,,,,,,,,1397147599,119.292808985,1397147599,119.803276269,None,0.5,1397147602,122.291479691,,,,,,2014_Apr_10_1731,60.0262895181,semact_fmri_builder,002,dm,
3,object,trial_images_objects\r_hairbrush.png,n,n,hairbrush,106,,,,,,,,0,0,0,2,,,,,,,,,0,0,0,0,0,11,11,13,,,,,,,,,,,,,,,,,,,,,,,1397147602,122.791459618,1397147603,123.300695102,None,1.5,1397147605,125.790141191,,,,,,2014_Apr_10_1731,60.0262895181,semact_fmri_builder,002,dm,
3,object,trial_images_objects\r_african_sickle.png,f,n,african_sickle,94,,,,,,,,0,0,0,2,,,,,,,,,0,0,0,0,0,12,12,0,,,,,,,,,,,,,,,,,,,,,,,1397147607,127.289733861,1397147607,127.797356323,3,2.5,1397147610,130.288478819,1397147608,128.855649363,1.0577844437,,,2014_Apr_10_1731,60.0262895181,semact_fmri_builder,002,dm,
3,animal,trial_images_animals\r_robin.png,n,n,robin,62,,,,,,,,0,0,0,2,,,,,,,,,0,0,0,0,0,13,13,2,,,,,,,,,,,,,,,,,,,,,,,1397147612,132.787662498,1397147613,133.300452123,3,2.5,1397147615,135.786389648,1397147614,135.203101867,1.90237567525,,,2014_Apr_10_1731,60.0262895181,semact_fmri_builder,002,dm,
3,,,,,,,,,,,,,,0,0,0,2,,,,,,,,,0,0,0,0,,,,,,,,,,,,,,,,,,,,,,,,,,,,,,,,,,,,,,,,2014_Apr_10_1731,60.0262895181,semact_fmri_builder,002,dm,
3,,,,,,,,,,,,,,0,0,0,2,,,,,,,,,,,,,,,,,,,,,,,,,,,,,,,,,,,,,,,,,,,,,,,,,,,,2014_Apr_10_1731,60.0262895181,semact_fmri_builder,002,dm,
2,object,trial_images_objects\r_tin_opener.png,n,n,,95,tin_opener,,,,,,,0,1,1,1,,,,,0,0,0,0,,,,,,,,,,,,,0,0,0,11,,,,,,,,,,,,,,,1397147624,144.317136513,1397147624,144.810689709,None,3.5,,147.298579219,,,,1397147621,141.29745608,2014_Apr_10_1731,60.0262895181,semact_fmri_builder,002,dm,
2,object,trial_images_objects\r_whisk.png,n,n,,116,whisk,,,,,,,0,1,1,1,,,,,0,0,0,0,,,,,,,,,,,,,0,1,1,12,,,,,,,,,,,,,,,1397147630,150.797293541,1397147631,151.307308672,None,2.5,,153.795978735,,,,,,2014_Apr_10_1731,60.0262895181,semact_fmri_builder,002,dm,
2,animal,trial_images_animals\r_deer_fallow.png,n,n,,71,deer_fallow,,,,,,,0,1,1,1,,,,,0,0,0,0,,,,,,,,,,,,,0,2,2,9,,,,,,,,,,,,,,,1397147636,156.295179317,1397147636,156.805227651,3,0.5,,159.293988265,1397147637,157.744514474,0.93894393573,,,2014_Apr_10_1731,60.0262895181,semact_fmri_builder,002,dm,
2,animal,trial_images_animals\r_badger2.png,n,n,,61,badger2,,,,,,,0,1,1,1,,,,,0,0,0,0,,,,,,,,,,,,,0,3,3,8,,,,,,,,,,,,,,,1397147639,159.793804899,1397147640,160.307730641,None,3.5,,162.79249945,,,,,,2014_Apr_10_1731,60.0262895181,semact_fmri_builder,002,dm,
2,animal,trial_images_animals\r_dog_terrier.png,n,n,,68,dog_terrier,,,,,,,0,1,1,1,,,,,0,0,0,0,,,,,,,,,,,,,0,4,4,2,,,,,,,,,,,,,,,1397147646,166.291345675,1397147646,166.802073445,None,3.5,,169.290013664,,,,,,2014_Apr_10_1731,60.0262895181,semact_fmri_builder,002,dm,
2,object,trial_images_objects\r_hammer.png,n,v,,107,hammer,,,,,,,0,1,1,1,,,,,0,0,0,0,,,,,,,,,,,,,0,5,5,1,,,,,,,,,,,,,,,1397147652,172.805588045,1397147653,173.315505683,3,2.5,,175.80430614,1397147653,174.171451149,0.855668379194,,,2014_Apr_10_1731,60.0262895181,semact_fmri_builder,002,dm,
2,animal,trial_images_animals\r_goat2.png,n,n,,76,goat2,,,,,,,0,1,1,1,,,,,0,0,0,0,,,,,,,,,,,,,0,6,6,5,,,,,,,,,,,,,,,1397147658,178.303395646,1397147658,178.813889492,3,0.5,,181.302149659,1397147659,179.852598688,1.03843512765,,,2014_Apr_10_1731,60.0262895181,semact_fmri_builder,002,dm,
2,animal,trial_images_animals\r_ladybird.png,n,n,,72,ladybird,,,,,,,0,1,1,1,,,,,0,0,0,0,,,,,,,,,,,,,0,7,7,4,,,,,,,,,,,,,,,1397147661,181.802058655,1397147662,182.312237382,None,0.5,,184.800716382,,,,,,2014_Apr_10_1731,60.0262895181,semact_fmri_builder,002,dm,
2,animal,trial_images_animals\r_duck_mallard.png,n,n,,73,duck_mallard,,,,,,,0,1,1,1,,,,,0,0,0,0,,,,,,,,,,,,,0,8,8,6,,,,,,,,,,,,,,,1397147665,185.300673672,1397147665,185.812323859,None,0.5,,188.299373958,,,,,,2014_Apr_10_1731,60.0262895181,semact_fmri_builder,002,dm,
2,animal,trial_images_animals\r_hedgehog.png,n,n,,80,hedgehog,,,,,,,0,1,1,1,,,,,0,0,0,0,,,,,,,,,,,,,0,9,9,0,,,,,,,,,,,,,,,1397147668,188.799374411,1397147669,189.311974481,None,0.5,,191.79804391,,,,,,2014_Apr_10_1731,60.0262895181,semact_fmri_builder,002,dm,
2,animal,trial_images_animals\r_penguin.png,f,n,,84,penguin,,,,,,,0,1,1,1,,,,,0,0,0,0,,,,,,,,,,,,,0,10,10,3,,,,,,,,,,,,,,,1397147672,192.298025045,1397147672,192.807044715,None,0.5,,195.29669062,,,,,,2014_Apr_10_1731,60.0262895181,semact_fmri_builder,002,dm,
2,object,trial_images_objects\r_tweezers.png,n,n,,103,tweezers,,,,,,,0,1,1,1,,,,,0,0,0,0,,,,,,,,,,,,,0,11,11,7,,,,,,,,,,,,,,,1397147675,195.796674471,1397147676,196.306377804,None,2.5,,198.795345781,,,,,,2014_Apr_10_1731,60.0262895181,semact_fmri_builder,002,dm,
2,object,trial_images_objects\r_frypan.png,n,n,,104,frypan,,,,,,,0,1,1,1,,,,,0,0,0,0,,,,,,,,,,,,,0,12,12,13,,,,,,,,,,,,,,,1397147681,201.294572623,1397147681,201.80549689,None,3.5,,204.293251177,,,,,,2014_Apr_10_1731,60.0262895181,semact_fmri_builder,002,dm,
2,object,trial_images_objects\r_potatomasher.png,n,v,,118,potatomasher,,,,,,,0,1,1,1,,,,,0,0,0,0,,,,,,,,,,,,,0,13,13,10,,,,,,,,,,,,,,,1397147687,207.792117625,1397147688,208.300363081,3,0.5,,210.790831192,1397147689,209.224699875,0.924051557529,,,2014_Apr_10_1731,60.0262895181,semact_fmri_builder,002,dm,
2,,,,,,,,,,,,,,0,1,1,1,,,,,0,0,0,0,,,,,,,,,,,,,,,,,,,,,,,,,,,,,,,,,,,,,,,,,,,,2014_Apr_10_1731,60.0262895181,semact_fmri_builder,002,dm,
2,,,,,,,,,,,,,,0,1,1,1,,,,,,,,,,,,,,,,,,,,,,,,,,,,,,,,,,,,,,,,,,,,,,,,,,,,2014_Apr_10_1731,60.0262895181,semact_fmri_builder,002,dm,
1,object,trial_images_objects\r_cutteknife.png,n,n,,102,,cutterknife,,,,,,0,2,2,0,0,0,0,0,,,,,,,,,,,,,,,,,,,,,0,0,0,6,,,,,,,,,1397147694,214.319718735,1397147697,217.339257304,1397147697,217.8318416,None,0.5,,220.320558448,,,,,,2014_Apr_10_1731,60.0262895181,semact_fmri_builder,002,dm,
1,animal,trial_images_animals\r_jerboas.png,f,v,,82,,jerboas,,,,,,0,2,2,0,0,0,0,0,,,,,,,,,,,,,,,,,,,,,0,1,1,1,,,,,,,,,,,1397147700,220.82038625,1397147701,221.332128195,3,1.5,,223.819189463,1397147702,222.902786175,1.57033923859,,,2014_Apr_10_1731,60.0262895181,semact_fmri_builder,002,dm,
1,animal,trial_images_animals\r_crow.png,n,n,,64,,crow,,,,,,0,2,2,0,0,0,0,0,,,,,,,,,,,,,,,,,,,,,0,2,2,0,,,,,,,,,,,1397147705,225.318665019,1397147705,225.829215913,None,2.5,,228.31734629,,,,,,2014_Apr_10_1731,60.0262895181,semact_fmri_builder,002,dm,
1,object,trial_images_objects\r_squeezer.png,n,n,,101,,squeezer,,,,,,0,2,2,0,0,0,0,0,,,,,,,,,,,,,,,,,,,,,0,3,3,5,,,,,,,,,,,1397147710,230.816575849,1397147711,231.328455432,None,0.5,,233.831922493,,,,,,2014_Apr_10_1731,60.0262895181,semact_fmri_builder,002,dm,
1,animal,trial_images_animals\r_grasshopper_common.png,n,v,,70,,grasshopper_common,,,,,,0,2,2,0,0,0,0,0,,,,,,,,,,,,,,,,,,,,,0,4,4,7,,,,,,,,,,,1397147714,234.331874953,1397147714,234.840830935,None,1.5,,237.330562261,,,,,,2014_Apr_10_1731,60.0262895181,semact_fmri_builder,002,dm,
1,animal,trial_images_animals\r_pony.png,n,n,,81,,pony,,,,,,0,2,2,0,0,0,0,0,,,,,,,,,,,,,,,,,,,,,0,5,5,11,,,,,,,,,,,1397147718,238.830153723,1397147719,239.341682571,None,0.5,,241.828854915,,,,,,2014_Apr_10_1731,60.0262895181,semact_fmri_builder,002,dm,
1,animal,trial_images_animals\r_sheep_blackfaced.png,n,n,,87,,sheep_blackfaced,,,,,,0,2,2,0,0,0,0,0,,,,,,,,,,,,,,,,,,,,,0,6,6,3,,,,,,,,,,,1397147722,242.32880979,1397147722,242.840818258,None,0.5,,245.327499814,,,,,,2014_Apr_10_1731,60.0262895181,semact_fmri_builder,002,dm,
1,animal,trial_images_animals\r_bulldog_whiteenglish.png,n,n,,65,,bulldog_whiteenglish,,,,,,0,2,2,0,0,0,0,0,,,,,,,,,,,,,,,,,,,,,0,7,7,4,,,,,,,,,,,1397147725,245.827458613,1397147726,246.339573932,None,2.5,,248.826136261,,,,,,2014_Apr_10_1731,60.0262895181,semact_fmri_builder,002,dm,
1,object,trial_images_objects\r_paint_roller.png,n,v,,117,,paint_roller,,,,,,0,2,2,0,0,0,0,0,,,,,,,,,,,,,,,,,,,,,0,8,8,9,,,,,,,,,,,1397147731,251.325387552,1397147731,251.834796291,None,1.5,,254.32404377,,,,,,2014_Apr_10_1731,60.0262895181,semact_fmri_builder,002,dm,
1,animal,trial_images_animals\r_beaver.png,n,n,,63,,beaver,,,,,,0,2,2,0,0,0,0,0,,,,,,,,,,,,,,,,,,,,,0,9,9,10,,,,,,,,,,,1397147735,255.823650324,1397147736,256.33695579,3,1.5,,258.822399508,1397147738,258.439135754,2.10190559297,,,2014_Apr_10_1731,60.0262895181,semact_fmri_builder,002,dm,
1,object,trial_images_objects\r_crosscut_saw.png,n,n,,100,,crosscut_saw,,,,,,0,2,2,0,0,0,0,0,,,,,,,,,,,,,,,,,,,,,0,10,10,8,,,,,,,,,,,1397147740,260.321920341,1397147740,260.830563015,None,0.5,,263.320572031,,,,,,2014_Apr_10_1731,60.0262895181,semact_fmri_builder,002,dm,
1,object,trial_images_objects\r_teapot.png,n,n,,109,,teapot,,,,,,0,2,2,0,0,0,0,0,,,,,,,,,,,,,,,,,,,,,0,11,11,12,,,,,,,,,,,1397147743,263.820556486,1397147744,264.332002933,None,2.5,,266.819254358,,,,,,2014_Apr_10_1731,60.0262895181,semact_fmri_builder,002,dm,
1,animal,trial_images_animals\r_owl_whitebarn.png,n,n,,85,,owl_whitebarn,,,,,,0,2,2,0,0,0,0,0,,,,,,,,,,,,,,,,,,,,,0,12,12,13,,,,,,,,,,,1397147749,269.31846309,1397147749,269.829337252,3,1.5,,272.317233402,1397147751,271.850666926,2.02104534299,,,2014_Apr_10_1731,60.0262895181,semact_fmri_builder,002,dm,
1,animal,trial_images_animals\r_highland_cow.png,n,n,,69,,highland_cow,,,,,,0,2,2,0,0,0,0,0,,,,,,,,,,,,,,,,,,,,,0,13,13,2,,,,,,,,,,,1397147753,273.816794077,1397147754,274.329848112,None,2.5,,276.832108727,,,,,,2014_Apr_10_1731,60.0262895181,semact_fmri_builder,002,dm,
1,,,,,,,,,,,,,,0,2,2,0,0,0,0,0,,,,,,,,,,,,,,,,,,,,,,,,,,,,,,,,,,,,,,,,,,,,,,,,2014_Apr_10_1731,60.0262895181,semact_fmri_builder,002,dm,
1,,,,,,,,,,,,,,0,2,2,0,,,,,,,,,,,,,,,,,,,,,,,,,,,,,,,,,,,,,,,,,,,,,,,,,,,,2014_Apr_10_1731,60.0262895181,semact_fmri_builder,002,dm,
4,animal,trial_images_animals\r_moth.png,n,n,,66,,,moth,,,,,0,3,3,3,,,,,,,,,,,,,,,,,0,0,0,0,,,,,,,,,0,0,0,3,,,,,,,1397147765,285.36325613,1397147765,285.856625205,None,1.5,1397147768,288.344605871,,,,1397147762,282.358693549,2014_Apr_10_1731,60.0262895181,semact_fmri_builder,002,dm,
4,object,trial_images_objects\r_mop.png,n,n,,93,,,mop,,,,,0,3,3,3,,,,,,,,,,,,,,,,,0,0,0,0,,,,,,,,,0,1,1,0,,,,,,,1397147769,289.844043094,1397147770,290.353448814,None,1.5,1397147772,292.859366497,,,,,,2014_Apr_10_1731,60.0262895181,semact_fmri_builder,002,dm,
4,object,trial_images_objects\r_cakeslicer.png,n,n,,92,,,cakeslicer,,,,,0,3,3,3,,,,,,,,,,,,,,,,,0,0,0,0,,,,,,,,,0,2,2,10,,,,,,,1397147774,294.358949206,1397147774,294.867374859,None,0.5,1397147777,297.357630778,,,,,,2014_Apr_10_1731,60.0262895181,semact_fmri_builder,002,dm,
4,object,trial_images_objects\r_shisha.png,f,n,,120,,,shisha,,,,,0,3,3,3,,,,,,,,,,,,,,,,,0,0,0,0,,,,,,,,,0,3,3,11,,,,,,,1397147777,297.857618855,1397147778,298.368363529,None,1.5,1397147780,300.856320651,,,,,,2014_Apr_10_1731,60.0262895181,semact_fmri_builder,002,dm,
4,animal,trial_images_animals\r_fox2.png,n,n,,74,,,fox2,,,,,0,3,3,3,,,,,,,,,,,,,,,,,0,0,0,0,,,,,,,,,0,4,4,9,,,,,,,1397147782,302.355883137,1397147782,302.867781434,3,1.5,1397147785,305.354762413,1397147783,303.805090616,0.936996779692,,,2014_Apr_10_1731,60.0262895181,semact_fmri_builder,002,dm,
4,animal,trial_images_animals\r_goose_canada.png,n,n,,77,,,goose_canada,,,,,0,3,3,3,,,,,,,,,,,,,,,,,0,0,0,0,,,,,,,,,0,5,5,7,,,,,,,1397147786,306.854197221,1397147787,307.364463784,None,2.5,1397147789,309.852836235,,,,,,2014_Apr_10_1731,60.0262895181,semact_fmri_builder,002,dm,
4,animal,trial_images_animals\r_giraffe.png,f,n,,67,,,giraffe,,,,,0,3,3,3,,,,,,,,,,,,,,,,,0,0,0,0,,,,,,,,,0,6,6,13,,,,,,,1397147792,312.352073038,1397147792,312.862701201,None,2.5,1397147795,315.350716276,,,,,,2014_Apr_10_1731,60.0262895181,semact_fmri_builder,002,dm,
4,animal,trial_images_animals\r_wallaby.png,f,v,,83,,,wallaby,,,,,0,3,3,3,,,,,,,,,,,,,,,,,0,0,0,0,,,,,,,,,0,7,7,6,,,,,,,1397147797,317.849946137,1397147798,318.360526912,3,2.5,1397147800,320.848698641,1397147799,319.38240895,1.02159227319,,,2014_Apr_10_1731,60.0262895181,semact_fmri_builder,002,dm,
4,object,trial_images_objects\r_scoop.png,n,n,,110,,,scoop,,,,,0,3,3,3,,,,,,,,,,,,,,,,,0,0,0,0,,,,,,,,,0,8,8,8,,,,,,,1397147803,323.347855759,1397147803,323.856983487,3,1.5,1397147806,326.346578683,1397147805,325.446720034,1.58946127073,,,2014_Apr_10_1731,60.0262895181,semact_fmri_builder,002,dm,
4,animal,trial_images_animals\r_toad.png,n,v,,75,,,toad,,,,,0,3,3,3,,,,,,,,,,,,,,,,,0,0,0,0,,,,,,,,,0,9,9,5,,,,,,,1397147807,327.846101628,1397147808,328.358228719,3,2.5,1397147810,330.844845983,1397147809,329.745100341,1.38658940422,,,2014_Apr_10_1731,60.0262895181,semact_fmri_builder,002,dm,
4,object,trial_images_objects\r_scissors.png,n,n,,114,,,scissors,,,,,0,3,3,3,,,,,,,,,,,,,,,,,0,0,0,0,,,,,,,,,0,10,10,4,,,,,,,1397147813,333.344033586,1397147813,333.852333675,None,1.5,1397147816,336.359312317,,,,,,2014_Apr_10_1731,60.0262895181,semact_fmri_builder,002,dm,
4,object,trial_images_objects\r_chopsticks.png,f,n,,96,,,chopsticks,,,,,0,3,3,3,,,,,,,,,,,,,,,,,0,0,0,0,,,,,,,,,0,11,11,1,,,,,,,1397147817,337.858931548,1397147818,338.368507505,3,3.5,1397147820,340.857699446,1397147819,339.358064821,0.989282944923,,,2014_Apr_10_1731,60.0262895181,semact_fmri_builder,002,dm,
4,object,trial_images_objects\r_garden clippers.png,n,n,,105,,,garden_clippers,,,,,0,3,3,3,,,,,,,,,,,,,,,,,0,0,0,0,,,,,,,,,0,12,12,12,,,,,,,1397147824,344.356462062,1397147824,344.866089935,3,2.5,1397147827,347.355183175,1397147826,346.538636906,1.6722722988,,,2014_Apr_10_1731,60.0262895181,semact_fmri_builder,002,dm,
4,object,trial_images_objects\r_handbell.png,n,v,,91,,,handbell,,,,,0,3,3,3,,,,,,,,,,,,,,,,,0,0,0,0,,,,,,,,,0,13,13,2,,,,,,,1397147829,349.854343915,1397147830,350.368125077,None,2.5,1397147832,352.853001944,,,,,,2014_Apr_10_1731,60.0262895181,semact_fmri_builder,002,dm,
4,,,,,,,,,,,,,,0,3,3,3,,,,,,,,,,,,,,,,,0,0,0,0,,,,,,,,,,,,,,,,,,,,,,,,,,,,,,,,2014_Apr_10_1731,60.0262895181,semact_fmri_builder,002,dm,
4,,,,,,,,,,,,,,0,3,3,3,,,,,,,,,,,,,,,,,,,,,,,,,,,,,,,,,,,,,,,,,,,,,,,,,,,,2014_Apr_10_1731,60.0262895181,semact_fmri_builder,002,dm,
