selectBlock,category,paths,semantic,action,number,image4,image2,image1,image3,trigger_loop.thisRepN,trigger_loop.thisTrialN,trigger_loop.thisN,trigger_loop.thisIndex,blockSelectLoop.thisRepN,blockSelectLoop.thisTrialN,blockSelectLoop.thisN,blockSelectLoop.thisIndex,b1loop.thisRepN,b1loop.thisTrialN,b1loop.thisN,b1loop.thisIndex,b2loop.thisRepN,b2loop.thisTrialN,b2loop.thisN,b2loop.thisIndex,b3loop.thisRepN,b3loop.thisTrialN,b3loop.thisN,b3loop.thisIndex,b4loop.thisRepN,b4loop.thisTrialN,b4loop.thisN,b4loop.thisIndex,b4_trialLoop.thisRepN,b4_trialLoop.thisTrialN,b4_trialLoop.thisN,b4_trialLoop.thisIndex,b2_trialLoop.thisRepN,b2_trialLoop.thisTrialN,b2_trialLoop.thisN,b2_trialLoop.thisIndex,b1_trialLoop.thisRepN,b1_trialLoop.thisTrialN,b1_trialLoop.thisN,b1_trialLoop.thisIndex,b3_trialLoop.thisRepN,b3_trialLoop.thisTrialN,b3_trialLoop.thisN,b3_trialLoop.thisIndex,GenInstrAbsTime,GenInstrTime,triggerClock,triggerAbsClock,ActInstr_startAbstime,ActInstr_starttime,startFixAbstime,startFixtime,Img_startAbstime,Img_starttime,key_resp_2.keys,JitDur,startJitAbstime,startJittime,RespgetAbsTime,Respgettime,key_resp_2.rt,SemInstr_startAbstime,SemInstr_starttime,date,frameRate,expName,session,participant
,,,,,,,,,,0,0,0,0,,,,,,,,,,,,,,,,,,,,,,,,,,,,,,,,,,,,,1407428082,24.73064442,49.65057468,1407428107,,,,,,,,,,,,,,,,2014_Aug_07_1714,60.02476696,semact_fmri_builder,1,md014
4,object,trial_images_objects\r_rolling_pin.png,n,n,56,rolling_pin,,,,,,,,0,0,0,3,,,,,,,,,,,,,0,0,0,0,0,0,0,6,,,,,,,,,,,,,,,,,1407428107,49.71584591,1407428110,52.72912648,1407428110,53.22690057,None,2.5,1407428113,55.71104911,,,,,,2014_Aug_07_1714,60.02476696,semact_fmri_builder,1,md014
4,object,trial_images_objects\r_pruning_shear.png,n,n,45,pruning_shear,,,,,,,,0,0,0,3,,,,,,,,,,,,,0,0,0,0,0,1,1,0,,,,,,,,,,,,,,,,,,,1407428115,58.2100864,1407428116,58.71831072,None,1.5,1407428118,61.20874442,,,,,,2014_Aug_07_1714,60.02476696,semact_fmri_builder,1,md014
4,animal,trial_images_animals\r_ostrich.png,f,n,24,ostrich,,,,,,,,0,0,0,3,,,,,,,,,,,,,0,0,0,0,0,2,2,3,,,,,,,,,,,,,,,,,,,1407428120,62.70833317,1407428120,63.21853635,None,1.5,1407428123,65.70707752,,,,,,2014_Aug_07_1714,60.02476696,semact_fmri_builder,1,md014
4,object,trial_images_objects\r_pasta_spoon.png,n,n,50,pasta_spoon,,,,,,,,0,0,0,3,,,,,,,,,,,,,0,0,0,0,0,3,3,10,,,,,,,,,,,,,,,,,,,1407428124,67.20659443,1407428125,67.71607169,None,2.5,1407428127,70.20532158,,,,,,2014_Aug_07_1714,60.02476696,semact_fmri_builder,1,md014
4,animal,trial_images_animals\r_bug_common.png,n,n,3,bug_common,,,,,,,,0,0,0,3,,,,,,,,,,,,,0,0,0,0,0,4,4,1,,,,,,,,,,,,,,,,,,,1407428130,72.70455084,1407428130,73.21804888,None,2.5,1407428133,75.70318623,,,,,,2014_Aug_07_1714,60.02476696,semact_fmri_builder,1,md014
4,animal,trial_images_animals\r_blackbird.png,n,n,4,blackbird,,,,,,,,0,0,0,3,,,,,,,,,,,,,0,0,0,0,0,5,5,2,,,,,,,,,,,,,,,,,,,1407428135,78.21907543,1407428136,78.73341046,None,2.5,1407428138,81.21774613,,,,,,2014_Aug_07_1714,60.02476696,semact_fmri_builder,1,md014
4,object,trial_images_objects\r_broom.png,n,n,33,broom,,,,,,,,0,0,0,3,,,,,,,,,,,,,0,0,0,0,0,6,6,5,,,,,,,,,,,,,,,,,,,1407428141,83.71698414,1407428141,84.22308927,None,0.5,1407428144,86.71560565,,,,,,2014_Aug_07_1714,60.02476696,semact_fmri_builder,1,md014
4,object,trial_images_objects\r_eyelash_curlers.png,n,n,43,eyelash_curlers,,,,,,,,0,0,0,3,,,,,,,,,,,,,0,0,0,0,0,7,7,9,,,,,,,,,,,,,,,,,,,1407428144,87.2155569,1407428145,87.72249812,None,1.5,1407428147,90.21425206,,,,,,2014_Aug_07_1714,60.02476696,semact_fmri_builder,1,md014
4,object,trial_images_objects\r_rasp.png,n,n,47,rasp,,,,,,,,0,0,0,3,,,,,,,,,,,,,0,0,0,0,0,8,8,8,,,,,,,,,,,,,,,,,,,1407428149,91.71385137,1407428149,92.22076693,None,1.5,1407428152,94.71257369,,,,,,2014_Aug_07_1714,60.02476696,semact_fmri_builder,1,md014
4,animal,trial_images_animals\r_seal_grey.png,n,n,26,seal_grey,,,,,,,,0,0,0,3,,,,,,,,,,,,,0,0,0,0,0,9,9,7,,,,,,,,,,,,,,,,,,,1407428153,96.21215248,1407428154,96.72429194,None,3.5,1407428156,99.21083465,,,,,,2014_Aug_07_1714,60.02476696,semact_fmri_builder,1,md014
4,animal,trial_images_animals\r_seagull_herring.png,n,n,17,seagull_herring,,,,,,,,0,0,0,3,,,,,,,,,,,,,0,0,0,0,0,10,10,11,,,,,,,,,,,,,,,,,,,1407428160,102.7096981,1407428160,103.221808,3,0.5,1407428163,105.708437,1407428162,104.8252887,1.603161691,,,2014_Aug_07_1714,60.02476696,semact_fmri_builder,1,md014
4,object,trial_images_objects\r_spatula.png,n,n,32,spatula,,,,,,,,0,0,0,3,,,,,,,,,,,,,0,0,0,0,0,11,11,12,,,,,,,,,,,,,,,,,,,1407428163,106.2082877,1407428164,106.7165021,3,0.5,1407428166,109.2070381,1407428166,108.8236636,2.106870826,,,2014_Aug_07_1714,60.02476696,semact_fmri_builder,1,md014
4,animal,trial_images_animals\r_deer_roe.png,n,n,11,deer_roe,,,,,,,,0,0,0,3,,,,,,,,,,,,,0,0,0,0,0,12,12,4,,,,,,,,,,,,,,,,,,,1407428167,109.7069387,1407428167,110.2162001,None,0.5,1407428170,112.7056405,,,,,,2014_Aug_07_1714,60.02476696,semact_fmri_builder,1,md014
4,object,trial_images_objects\r_nail_file.png,n,n,53,nail_file,,,,,,,,0,0,0,3,,,,,,,,,,,,,0,0,0,0,0,13,13,13,,,,,,,,,,,,,,,,,,,1407428170,113.2055809,1407428171,113.7137306,None,2.5,1407428173,116.2043071,,,,,,2014_Aug_07_1714,60.02476696,semact_fmri_builder,1,md014
4,,,,,,,,,,,,,,0,0,0,3,,,,,,,,,,,,,0,0,0,0,,,,,,,,,,,,,,,,,,,,,,,,,,,,,,,,,,,,2014_Aug_07_1714,60.02476696,semact_fmri_builder,1,md014
4,,,,,,,,,,,,,,0,0,0,3,,,,,,,,,,,,,,,,,,,,,,,,,,,,,,,,,,,,,,,,,,,,,,,,,,,,2014_Aug_07_1714,60.02476696,semact_fmri_builder,1,md014
2,animal,trial_images_animals\r_bulldog_english.png,n,n,5,,bulldog_english,,,,,,,0,1,1,1,,,,,0,0,0,0,,,,,,,,,,,,,0,0,0,7,,,,,,,,,,,,,1407428179,121.7281434,1407428182,124.7506738,1407428182,125.2486972,None,2.5,,127.7332393,,,,,,2014_Aug_07_1714,60.02476696,semact_fmri_builder,1,md014
2,animal,trial_images_animals\r_dragonfly.png,n,n,12,,dragonfly,,,,,,,0,1,1,1,,,,,0,0,0,0,,,,,,,,,,,,,0,1,1,6,,,,,,,,,,,,,,,1407428187,130.2323107,1407428188,130.7439998,None,2.5,,133.2309712,,,,,,2014_Aug_07_1714,60.02476696,semact_fmri_builder,1,md014
2,animal,trial_images_animals\r_duck_white.png,n,n,13,,duck_white,,,,,,,0,1,1,1,,,,,0,0,0,0,,,,,,,,,,,,,0,2,2,3,,,,,,,,,,,,,,,1407428193,135.7301923,1407428193,136.2414646,None,3.5,,138.7288473,,,,,,2014_Aug_07_1714,60.02476696,semact_fmri_builder,1,md014
2,animal,trial_images_animals\r_frog.png,n,v,15,,frog,,,,,,,0,1,1,1,,,,,0,0,0,0,,,,,,,,,,,,,0,3,3,9,,,,,,,,,,,,,,,1407428199,142.2277343,1407428200,142.739753,3,1.5,,145.2264614,1407428201,143.9935349,1.253456874,,,2014_Aug_07_1714,60.02476696,semact_fmri_builder,1,md014
2,object,trial_images_objects\r_maracas.png,f,v,60,,maracas,,,,,,,0,1,1,1,,,,,0,0,0,0,,,,,,,,,,,,,0,4,4,4,,,,,,,,,,,,,,,1407428204,146.7259837,1407428204,147.2354091,3,0.5,,149.7246955,1407428206,148.9582428,1.722560901,,,2014_Aug_07_1714,60.02476696,semact_fmri_builder,1,md014
2,object,trial_images_objects\r_chi_instrument.png,f,n,31,,chi_instrument,,,,,,,0,1,1,1,,,,,0,0,0,0,,,,,,,,,,,,,0,5,5,5,,,,,,,,,,,,,,,1407428207,150.2245948,1407428208,150.7335403,None,1.5,,153.2232815,,,,,,2014_Aug_07_1714,60.02476696,semact_fmri_builder,1,md014
2,object,trial_images_objects\r_corkscrew.png,n,n,41,,corkscrew,,,,,,,0,1,1,1,,,,,0,0,0,0,,,,,,,,,,,,,0,6,6,12,,,,,,,,,,,,,,,1407428212,154.7228875,1407428212,155.2308039,None,3.5,,157.7215594,,,,,,2014_Aug_07_1714,60.02476696,semact_fmri_builder,1,md014
2,object,trial_images_objects\r_pitchfork.png,n,n,52,,pitchfork,,,,,,,0,1,1,1,,,,,0,0,0,0,,,,,,,,,,,,,0,7,7,0,,,,,,,,,,,,,,,1407428218,161.2203709,1407428219,161.7287302,None,1.5,,164.2356973,,,,,,2014_Aug_07_1714,60.02476696,semact_fmri_builder,1,md014
2,animal,trial_images_animals\r_cow_dairy.png,n,n,9,,cow_dairy,,,,,,,0,1,1,1,,,,,0,0,0,0,,,,,,,,,,,,,0,8,8,2,,,,,,,,,,,,,,,1407428223,165.7353066,1407428223,166.2483718,None,3.5,,168.7339668,,,,,,2014_Aug_07_1714,60.02476696,semact_fmri_builder,1,md014
2,object,trial_images_objects\r_kettle.png,n,n,49,,kettle,,,,,,,0,1,1,1,,,,,0,0,0,0,,,,,,,,,,,,,0,9,9,11,,,,,,,,,,,,,,,1407428229,172.2328308,1407428230,172.7430472,None,1.5,,175.2314629,,,,,,2014_Aug_07_1714,60.02476696,semact_fmri_builder,1,md014
2,object,trial_images_objects\r_pepper_mill.png,n,n,35,,peppemill,,,,,,,0,1,1,1,,,,,0,0,0,0,,,,,,,,,,,,,0,10,10,13,,,,,,,,,,,,,,,1407428234,176.7310806,1407428234,177.2403499,3,1.5,,179.7298138,1407428235,178.2303135,0.989689822,,,2014_Aug_07_1714,60.02476696,semact_fmri_builder,1,md014
2,object,trial_images_objects\r_toothbrush.png,n,n,38,,toothbrush,,,,,,,0,1,1,1,,,,,0,0,0,0,,,,,,,,,,,,,0,11,11,10,,,,,,,,,,,,,,,1407428238,181.229331,1407428239,181.7401396,None,1.5,,184.2279956,,,,,,2014_Aug_07_1714,60.02476696,semact_fmri_builder,1,md014
2,animal,trial_images_animals\r_cat_wild.png,n,n,8,,cat_wild,,,,,,,0,1,1,1,,,,,0,0,0,0,,,,,,,,,,,,,0,12,12,8,,,,,,,,,,,,,,,1407428243,185.7275913,1407428243,186.2369635,None,1.5,,188.7262768,,,,,,2014_Aug_07_1714,60.02476696,semact_fmri_builder,1,md014
2,animal,trial_images_animals\r_badger.png,n,n,1,,badger1,,,,,,,0,1,1,1,,,,,0,0,0,0,,,,,,,,,,,,,0,13,13,1,,,,,,,,,,,,,,,1407428247,190.2258764,1407428248,190.7392622,None,3.5,,193.2245447,,,,,,2014_Aug_07_1714,60.02476696,semact_fmri_builder,1,md014
2,,,,,,,,,,,,,,0,1,1,1,,,,,0,0,0,0,,,,,,,,,,,,,,,,,,,,,,,,,,,,,,,,,,,,,,,,,,,,2014_Aug_07_1714,60.02476696,semact_fmri_builder,1,md014
2,,,,,,,,,,,,,,0,1,1,1,,,,,,,,,,,,,,,,,,,,,,,,,,,,,,,,,,,,,,,,,,,,,,,,,,,,2014_Aug_07_1714,60.02476696,semact_fmri_builder,1,md014
1,animal,trial_images_animals\r_squirrel_red.png,n,v,22,,,squirrel_red,,,,,,0,2,2,0,0,0,0,0,,,,,,,,,,,,,,,,,,,,,0,0,0,9,,,,,,,,,,,1407428260,202.755246,1407428260,203.2505671,None,2.5,,205.7365505,,,,1407428257,199.7363552,2014_Aug_07_1714,60.02476696,semact_fmri_builder,1,md014
1,object,trial_images_objects\r_iron.png,n,n,39,,,iron,,,,,,0,2,2,0,0,0,0,0,,,,,,,,,,,,,,,,,,,,,0,1,1,11,,,,,,,,,,,1407428265,208.2356551,1407428266,208.7486397,None,2.5,,211.234298,,,,,,2014_Aug_07_1714,60.02476696,semact_fmri_builder,1,md014
1,object,trial_images_objects\r_compass.png,n,n,37,,,compass,,,,,,0,2,2,0,0,0,0,0,,,,,,,,,,,,,,,,,,,,,0,2,2,5,,,,,,,,,,,1407428271,213.7335255,1407428271,214.2396149,None,0.5,,216.7488917,,,,,,2014_Aug_07_1714,60.02476696,semact_fmri_builder,1,md014
1,object,trial_images_objects\r_coping_saw.png,n,n,40,,,coping_saw,,,,,,0,2,2,0,0,0,0,0,,,,,,,,,,,,,,,,,,,,,0,3,3,7,,,,,,,,,,,1407428274,217.2488427,1407428275,217.7564848,None,2.5,,220.2475412,,,,,,2014_Aug_07_1714,60.02476696,semact_fmri_builder,1,md014
1,animal,trial_images_animals\r_fox_red.png,n,n,14,,,fox_red,,,,,,0,2,2,0,0,0,0,0,,,,,,,,,,,,,,,,,,,,,0,4,4,13,,,,,,,,,,,1407428280,222.746765,1407428280,223.2572247,None,2.5,,225.7453901,,,,,,2014_Aug_07_1714,60.02476696,semact_fmri_builder,1,md014
1,animal,trial_images_animals\r_swan_bewick.png,n,n,30,,,swan_bewick,,,,,,0,2,2,0,0,0,0,0,,,,,,,,,,,,,,,,,,,,,0,5,5,10,,,,,,,,,,,1407428285,228.2446963,1407428286,228.756575,None,1.5,,231.243268,,,,,,2014_Aug_07_1714,60.02476696,semact_fmri_builder,1,md014
1,object,trial_images_objects\r_spanner.png,n,n,55,,,spanner,,,,,,0,2,2,0,0,0,0,0,,,,,,,,,,,,,,,,,,,,,0,6,6,2,,,,,,,,,,,1407428290,232.7428683,1407428290,233.2511529,None,0.5,,235.7415208,,,,,,2014_Aug_07_1714,60.02476696,semact_fmri_builder,1,md014
1,object,trial_images_objects\r_staple_remover.png,n,n,54,,,staple_remover,,,,,,0,2,2,0,0,0,0,0,,,,,,,,,,,,,,,,,,,,,0,7,7,3,,,,,,,,,,,1407428293,236.2415014,1407428294,236.7511021,None,0.5,,239.240198,,,,,,2014_Aug_07_1714,60.02476696,semact_fmri_builder,1,md014
1,object,trial_images_objects\r_knife_table.png,n,n,42,,,knife_table,,,,,,0,2,2,0,0,0,0,0,,,,,,,,,,,,,,,,,,,,,0,8,8,8,,,,,,,,,,,1407428297,239.7402036,1407428297,240.2486827,None,2.5,,242.7388955,,,,,,2014_Aug_07_1714,60.02476696,semact_fmri_builder,1,md014
1,object,trial_images_objects\r_cleaningbrush.png,n,n,46,,,cleaningbrush,,,,,,0,2,2,0,0,0,0,0,,,,,,,,,,,,,,,,,,,,,0,9,9,12,,,,,,,,,,,1407428302,245.2380653,1407428303,245.7487369,None,0.5,,248.2367462,,,,,,2014_Aug_07_1714,60.02476696,semact_fmri_builder,1,md014
1,object,trial_images_objects\r_lipstick.png,n,n,48,,,lipstick,,,,,,0,2,2,0,0,0,0,0,,,,,,,,,,,,,,,,,,,,,0,10,10,6,,,,,,,,,,,1407428306,248.7367053,1407428306,249.2439276,None,1.5,,251.735434,,,,,,2014_Aug_07_1714,60.02476696,semact_fmri_builder,1,md014
1,animal,trial_images_animals\r_camel.png,f,n,7,,,camel,,,,,,0,2,2,0,0,0,0,0,,,,,,,,,,,,,,,,,,,,,0,11,11,4,,,,,,,,,,,1407428310,253.2349883,1407428311,253.7477109,3,0.5,,256.2338323,1407428312,254.5676677,0.819654897,,,2014_Aug_07_1714,60.02476696,semact_fmri_builder,1,md014
1,animal,trial_images_animals\r_goat.png,n,n,16,,,goat1,,,,,,0,2,2,0,0,0,0,0,,,,,,,,,,,,,,,,,,,,,0,12,12,0,,,,,,,,,,,1407428314,256.7336217,1407428314,257.2462934,None,2.5,,259.748979,,,,,,2014_Aug_07_1714,60.02476696,semact_fmri_builder,1,md014
1,animal,trial_images_animals\r_springbok.png,f,n,28,,,springbok,,,,,,0,2,2,0,0,0,0,0,,,,,,,,,,,,,,,,,,,,,0,13,13,1,,,,,,,,,,,1407428319,262.2482088,1407428320,262.7598765,3,2.5,,265.2469619,1407428321,264.1139688,1.353824904,,,2014_Aug_07_1714,60.02476696,semact_fmri_builder,1,md014
1,,,,,,,,,,,,,,0,2,2,0,0,0,0,0,,,,,,,,,,,,,,,,,,,,,,,,,,,,,,,,,,,,,,,,,,,,,,,,2014_Aug_07_1714,60.02476696,semact_fmri_builder,1,md014
1,,,,,,,,,,,,,,0,2,2,0,,,,,,,,,,,,,,,,,,,,,,,,,,,,,,,,,,,,,,,,,,,,,,,,,,,,2014_Aug_07_1714,60.02476696,semact_fmri_builder,1,md014
3,animal,trial_images_animals\r_bat.png,n,n,2,,,,bat,,,,,0,3,3,2,,,,,,,,,0,0,0,0,,,,,,,,,,,,,,,,,0,0,0,10,,,,,,,1407428331,273.7777411,1407428331,274.2732632,None,1.5,1407428334,276.7593534,,,,1407428328,270.7694771,2014_Aug_07_1714,60.02476696,semact_fmri_builder,1,md014
3,animal,trial_images_animals\r_mole.png,n,n,20,,,,mole,,,,,0,3,3,2,,,,,,,,,0,0,0,0,,,,,,,,,,,,,,,,,0,1,1,3,,,,,,,1407428335,278.2588577,1407428336,278.7705996,None,0.5,1407428338,281.2741264,,,,,,2014_Aug_07_1714,60.02476696,semact_fmri_builder,1,md014
3,animal,trial_images_animals\r_kangaroo_red.png,f,v,23,,,,kangaroo_red,,,,,0,3,3,2,,,,,,,,,0,0,0,0,,,,,,,,,,,,,,,,,0,2,2,13,,,,,,,1407428339,281.774116,1407428339,282.2876699,3,3.5,1407428342,284.7729271,1407428340,283.0234504,0.735470205,,,2014_Aug_07_1714,60.02476696,semact_fmri_builder,1,md014
3,animal,trial_images_animals\r_cricket_green.png,n,v,10,,,,cricket_green,,,,,0,3,3,2,,,,,,,,,0,0,0,0,,,,,,,,,,,,,,,,,0,3,3,2,,,,,,,1407428345,288.2716655,1407428346,288.7862215,3,1.5,1407428348,291.2704256,1407428347,290.0206705,1.234182413,,,2014_Aug_07_1714,60.02476696,semact_fmri_builder,1,md014
3,animal,trial_images_animals\r_butterfly.png,n,n,6,,,,butterfly,,,,,0,3,3,2,,,,,,,,,0,0,0,0,,,,,,,,,,,,,,,,,0,4,4,1,,,,,,,1407428350,292.7698815,1407428350,293.2876602,3,0.5,1407428353,295.7686736,1407428352,295.2520062,1.964071334,,,2014_Aug_07_1714,60.02476696,semact_fmri_builder,1,md014
3,animal,trial_images_animals\r_harvest_mouse.png,n,n,19,,,,harvest_mouse,,,,,0,3,3,2,,,,,,,,,0,0,0,0,,,,,,,,,,,,,,,,,0,5,5,0,,,,,,,1407428353,296.2685451,1407428354,296.7810142,None,0.5,1407428356,299.2672406,,,,,,2014_Aug_07_1714,60.02476696,semact_fmri_builder,1,md014
3,animal,trial_images_animals\r_stoat.png,n,n,29,,,,stoat,,,,,0,3,3,2,,,,,,,,,0,0,0,0,,,,,,,,,,,,,,,,,0,6,6,12,,,,,,,1407428357,299.7672036,1407428357,300.2800627,None,3.5,1407428360,302.7659172,,,,,,2014_Aug_07_1714,60.02476696,semact_fmri_builder,1,md014
3,animal,trial_images_animals\r_horse.png,n,n,21,,,,horse,,,,,0,3,3,2,,,,,,,,,0,0,0,0,,,,,,,,,,,,,,,,,0,7,7,4,,,,,,,1407428363,306.2648099,1407428364,306.7780511,None,0.5,1407428366,309.2634088,,,,,,2014_Aug_07_1714,60.02476696,semact_fmri_builder,1,md014
3,object,trial_images_objects\r_pliers.png,n,n,59,,,,pliers,,,,,0,3,3,2,,,,,,,,,0,0,0,0,,,,,,,,,,,,,,,,,0,8,8,11,,,,,,,1407428367,309.7633618,1407428367,310.2758197,None,2.5,1407428370,312.7620727,,,,,,2014_Aug_07_1714,60.02476696,semact_fmri_builder,1,md014
3,object,trial_images_objects\r_colander.png,n,n,36,,,,colander,,,,,0,3,3,2,,,,,,,,,0,0,0,0,,,,,,,,,,,,,,,,,0,9,9,7,,,,,,,1407428372,315.2612902,1407428373,315.7720373,None,0.5,1407428375,318.2599467,,,,,,2014_Aug_07_1714,60.02476696,semact_fmri_builder,1,md014
3,animal,trial_images_animals\r_owl.png,n,n,25,,,,owl2,,,,,0,3,3,2,,,,,,,,,0,0,0,0,,,,,,,,,,,,,,,,,0,10,10,6,,,,,,,1407428376,318.7599314,1407428376,319.2704902,None,2.5,1407428379,321.7585892,,,,,,2014_Aug_07_1714,60.02476696,semact_fmri_builder,1,md014
3,animal,trial_images_animals\r_rabbit.png,n,v,18,,,,rabbit,,,,,0,3,3,2,,,,,,,,,0,0,0,0,,,,,,,,,,,,,,,,,0,11,11,5,,,,,,,1407428381,324.2578202,1407428382,324.7847138,None,0.5,1407428384,327.2731989,,,,,,2014_Aug_07_1714,60.02476696,semact_fmri_builder,1,md014
3,object,trial_images_objects\r_pen.png,n,n,51,,,,pen1,,,,,0,3,3,2,,,,,,,,,0,0,0,0,,,,,,,,,,,,,,,,,0,12,12,8,,,,,,,1407428385,327.7731257,1407428385,328.282657,None,0.5,1407428388,330.7718048,,,,,,2014_Aug_07_1714,60.02476696,semact_fmri_builder,1,md014
3,object,trial_images_objects\r_wok.png,f,n,44,,,,wok,,,,,0,3,3,2,,,,,,,,,0,0,0,0,,,,,,,,,,,,,,,,,0,13,13,9,,,,,,,1407428388,331.2718125,1407428389,331.781655,None,0.5,1407428391,334.2705397,,,,,,2014_Aug_07_1714,60.02476696,semact_fmri_builder,1,md014
3,,,,,,,,,,,,,,0,3,3,2,,,,,,,,,0,0,0,0,,,,,,,,,,,,,,,,,,,,,,,,,,,,,,,,,,,,,,,,2014_Aug_07_1714,60.02476696,semact_fmri_builder,1,md014
3,,,,,,,,,,,,,,0,3,3,2,,,,,,,,,,,,,,,,,,,,,,,,,,,,,,,,,,,,,,,,,,,,,,,,,,,,2014_Aug_07_1714,60.02476696,semact_fmri_builder,1,md014
