selectBlock,category,paths,semantic,action,image1,number,image4,image3,image2,trigger_loop.thisRepN,trigger_loop.thisTrialN,trigger_loop.thisN,trigger_loop.thisIndex,blockSelectLoop.thisRepN,blockSelectLoop.thisTrialN,blockSelectLoop.thisN,blockSelectLoop.thisIndex,b1loop.thisRepN,b1loop.thisTrialN,b1loop.thisN,b1loop.thisIndex,b1_trialLoop.thisRepN,b1_trialLoop.thisTrialN,b1_trialLoop.thisN,b1_trialLoop.thisIndex,b2loop.thisRepN,b2loop.thisTrialN,b2loop.thisN,b2loop.thisIndex,b3loop.thisRepN,b3loop.thisTrialN,b3loop.thisN,b3loop.thisIndex,b4loop.thisRepN,b4loop.thisTrialN,b4loop.thisN,b4loop.thisIndex,b4_trialLoop.thisRepN,b4_trialLoop.thisTrialN,b4_trialLoop.thisN,b4_trialLoop.thisIndex,b3_trialLoop.thisRepN,b3_trialLoop.thisTrialN,b3_trialLoop.thisN,b3_trialLoop.thisIndex,b2_trialLoop.thisRepN,b2_trialLoop.thisTrialN,b2_trialLoop.thisN,b2_trialLoop.thisIndex,GenInstrAbsTime,GenInstrTime,triggerClock,triggerAbsClock,SemInstr_startAbstime,SemInstr_starttime,startFixtime,startFixAbstime,Img_startAbstime,Img_starttime,key_resp_2.keys,JitDur,startJittime,ActInstr_startAbstime,ActInstr_starttime,RespgetAbsTime,Respgettime,key_resp_2.rt,startJitAbstime,date,frameRate,expName,session,participant,
,,,,,,,,,,0,0,0,0,,,,,,,,,,,,,,,,,,,,,,,,,,,,,,,,,,,,,1407428451,10.1456971353,51.6409297572,1407428492,,,,,,,,,,,,,,,,2014_Aug_07_1720,60.0234619725,semact_fmri_builder,002,md014,
1,animal,trial_images_animals\r_robin.png,n,n,robin,62,,,,,,,,0,0,0,0,0,0,0,0,0,0,0,13,,,,,,,,,,,,,,,,,,,,,,,,,,,,,1407428492,51.6639210489,54.6821843523,1407428495,1407428496,55.1795865848,None,1.5,57.6636998017,,,,,,,2014_Aug_07_1720,60.0234619725,semact_fmri_builder,002,md014,
1,object,trial_images_objects\r_potatomasher.png,n,v,potatomasher,118,,,,,,,,0,0,0,0,0,0,0,0,0,1,1,3,,,,,,,,,,,,,,,,,,,,,,,,,,,,,,,59.163179886,1407428500,1407428500,59.6705638965,None,1.5,62.1618584399,,,,,,,2014_Aug_07_1720,60.0234619725,semact_fmri_builder,002,md014,
1,object,trial_images_objects\r_frypan.png,n,n,frypan,104,,,,,,,,0,0,0,0,0,0,0,0,0,2,2,2,,,,,,,,,,,,,,,,,,,,,,,,,,,,,,,63.6614480913,1407428504,1407428505,64.1702302148,None,1.5,66.6601091385,,,,,,,2014_Aug_07_1720,60.0234619725,semact_fmri_builder,002,md014,
1,object,trial_images_objects\r_pincer.png,n,n,pincer,119,,,,,,,,0,0,0,0,0,0,0,0,0,3,3,7,,,,,,,,,,,,,,,,,,,,,,,,,,,,,,,68.1763668803,1407428509,1407428509,68.6850976913,None,0.5,71.1750466415,,,,,,,2014_Aug_07_1720,60.0234619725,semact_fmri_builder,002,md014,
1,object,trial_images_objects\r_rake.png,n,n,rake,112,,,,,,,,0,0,0,0,0,0,0,0,0,4,4,0,,,,,,,,,,,,,,,,,,,,,,,,,,,,,,,71.6750135902,1407428512,1407428513,72.1827456198,None,0.5,74.6737075378,,,,,,,2014_Aug_07_1720,60.0234619725,semact_fmri_builder,002,md014,
1,object,trial_images_objects\r_mop.png,n,n,mop,93,,,,,,,,0,0,0,0,0,0,0,0,0,5,5,6,,,,,,,,,,,,,,,,,,,,,,,,,,,,,,,75.1736805233,1407428516,1407428516,75.6822051791,None,0.5,78.1723521349,,,,,,,2014_Aug_07_1720,60.0234619725,semact_fmri_builder,002,md014,
1,object,trial_images_objects\r_teapot.png,n,n,teapot,109,,,,,,,,0,0,0,0,0,0,0,0,0,6,6,11,,,,,,,,,,,,,,,,,,,,,,,,,,,,,,,78.6723224039,1407428519,1407428520,79.1842360952,None,2.5,81.6710691731,,,,,,,2014_Aug_07_1720,60.0234619725,semact_fmri_builder,002,md014,
1,object,trial_images_objects\r_nailclipper.png,n,n,nailclipper,113,,,,,,,,0,0,0,0,0,0,0,0,0,7,7,8,,,,,,,,,,,,,,,,,,,,,,,,,,,,,,,84.1703020522,1407428525,1407428525,84.6774614953,None,0.5,87.1689208421,,,,,,,2014_Aug_07_1720,60.0234619725,semact_fmri_builder,002,md014,
1,object,trial_images_objects\r_scissors.png,n,n,scissors,114,,,,,,,,0,0,0,0,0,0,0,0,0,8,8,4,,,,,,,,,,,,,,,,,,,,,,,,,,,,,,,87.6688847725,1407428528,1407428529,88.1778404527,None,3.5,90.6675889826,,,,,,,2014_Aug_07_1720,60.0234619725,semact_fmri_builder,002,md014,
1,animal,trial_images_animals\r_beaver.png,n,n,beaver,63,,,,,,,,0,0,0,0,0,0,0,0,0,9,9,9,,,,,,,,,,,,,,,,,,,,,,,,,,,,,,,94.1664149842,1407428535,1407428535,94.6784068515,None,2.5,97.1650715039,,,,,,,2014_Aug_07_1720,60.0234619725,semact_fmri_builder,002,md014,
1,animal,trial_images_animals\r_dog_terrier.png,n,n,dog_terrier,68,,,,,,,,0,0,0,0,0,0,0,0,0,10,10,1,,,,,,,,,,,,,,,,,,,,,,,,,,,,,,,99.6643279263,1407428540,1407428541,100.176273914,None,2.5,102.662961808,,,,,,,2014_Aug_07_1720,60.0234619725,semact_fmri_builder,002,md014,
1,animal,trial_images_animals\r_badger2.png,n,n,badger2,61,,,,,,,,0,0,0,0,0,0,0,0,0,11,11,10,,,,,,,,,,,,,,,,,,,,,,,,,,,,,,,105.162195291,1407428546,1407428546,105.680560163,None,2.5,108.160869619,,,,,,,2014_Aug_07_1720,60.0234619725,semact_fmri_builder,002,md014,
1,object,trial_images_objects\r_whisk.png,n,n,whisk,116,,,,,,,,0,0,0,0,0,0,0,0,0,12,12,5,,,,,,,,,,,,,,,,,,,,,,,,,,,,,,,110.660087708,1407428551,1407428552,111.171347317,None,1.5,113.675425901,,,,,,,2014_Aug_07_1720,60.0234619725,semact_fmri_builder,002,md014,
1,animal,trial_images_animals\r_fox2.png,n,n,fox2,74,,,,,,,,0,0,0,0,0,0,0,0,0,13,13,12,,,,,,,,,,,,,,,,,,,,,,,,,,,,,,,115.17502008,1407428556,1407428556,115.686231092,None,2.5,118.17368988,,,,,,,2014_Aug_07_1720,60.0234619725,semact_fmri_builder,002,md014,
1,,,,,,,,,,,,,,0,0,0,0,0,0,0,0,,,,,,,,,,,,,,,,,,,,,,,,,,,,,,,,,,,,,,,,,,,,,,,,2014_Aug_07_1720,60.0234619725,semact_fmri_builder,002,md014,
1,,,,,,,,,,,,,,0,0,0,0,,,,,,,,,,,,,,,,,,,,,,,,,,,,,,,,,,,,,,,,,,,,,,,,,,,,2014_Aug_07_1720,60.0234619725,semact_fmri_builder,002,md014,
4,animal,trial_images_animals\r_hare.png,n,v,,78,hare,,,,,,,0,1,1,3,,,,,,,,,,,,,,,,,0,0,0,0,0,0,0,11,,,,,,,,,,,,,,,126.70460185,1407428567,1407428568,127.198801281,3,0.5,129.686313796,1407428564,123.701095098,1407428569,128.26984184,1.07068439018,1407428570,2014_Aug_07_1720,60.0234619725,semact_fmri_builder,002,md014,
4,animal,trial_images_animals\r_crow.png,n,n,,64,crow,,,,,,,0,1,1,3,,,,,,,,,,,,,,,,,0,0,0,0,0,1,1,0,,,,,,,,,,,,,,,130.186001243,1407428571,1407428571,130.697808385,None,1.5,133.201325249,,,,,,1407428574,2014_Aug_07_1720,60.0234619725,semact_fmri_builder,002,md014,
4,animal,trial_images_animals\r_sheep_blackfaced.png,n,n,,87,sheep_blackfaced,,,,,,,0,1,1,3,,,,,,,,,,,,,,,,,0,0,0,0,0,2,2,9,,,,,,,,,,,,,,,134.700994888,1407428575,1407428576,135.212774865,None,0.5,137.699598586,,,,,,1407428578,2014_Aug_07_1720,60.0234619725,semact_fmri_builder,002,md014,
4,animal,trial_images_animals\r_giraffe.png,f,n,,67,giraffe,,,,,,,0,1,1,3,,,,,,,,,,,,,,,,,0,0,0,0,0,3,3,3,,,,,,,,,,,,,,,138.199569458,1407428579,1407428579,138.709358815,None,2.5,141.198295401,,,,,,1407428582,2014_Aug_07_1720,60.0234619725,semact_fmri_builder,002,md014,
4,animal,trial_images_animals\r_bulldog_whiteenglish.png,n,n,,65,bulldog_whiteenglish,,,,,,,0,1,1,3,,,,,,,,,,,,,,,,,0,0,0,0,0,4,4,7,,,,,,,,,,,,,,,143.69747908,1407428584,1407428585,144.208924923,None,2.5,146.696218907,,,,,,1407428587,2014_Aug_07_1720,60.0234619725,semact_fmri_builder,002,md014,
4,object,trial_images_objects\r_pencil.png,n,n,,111,pencil,,,,,,,0,1,1,3,,,,,,,,,,,,,,,,,0,0,0,0,0,5,5,4,,,,,,,,,,,,,,,149.195405907,1407428590,1407428590,149.703134013,None,0.5,152.194071482,,,,,,1407428593,2014_Aug_07_1720,60.0234619725,semact_fmri_builder,002,md014,
4,animal,trial_images_animals\r_toad.png,n,v,,75,toad,,,,,,,0,1,1,3,,,,,,,,,,,,,,,,,0,0,0,0,0,6,6,12,,,,,,,,,,,,,,,152.694049599,1407428593,1407428594,153.205353879,3,1.5,155.692777956,,,1407428595,154.043225596,0.837603081402,1407428596,2014_Aug_07_1720,60.0234619725,semact_fmri_builder,002,md014,
4,object,trial_images_objects\r_computer_mouse.png,n,n,,99,computer_mouse,,,,,,,0,1,1,3,,,,,,,,,,,,,,,,,0,0,0,0,0,7,7,13,,,,,,,,,,,,,,,157.192299694,1407428598,1407428598,157.700313036,None,2.5,160.19099515,,,,,,1407428601,2014_Aug_07_1720,60.0234619725,semact_fmri_builder,002,md014,
4,object,trial_images_objects\r_stapler.png,n,n,,97,stapler,,,,,,,0,1,1,3,,,,,,,,,,,,,,,,,0,0,0,0,0,8,8,1,,,,,,,,,,,,,,,162.690180037,1407428603,1407428604,163.202788861,3,2.5,165.688951255,,,1407428605,164.372628498,1.16955379611,1407428606,2014_Aug_07_1720,60.0234619725,semact_fmri_builder,002,md014,
4,animal,trial_images_animals\r_penguin.png,f,n,,84,penguin,,,,,,,0,1,1,3,,,,,,,,,,,,,,,,,0,0,0,0,0,9,9,2,,,,,,,,,,,,,,,168.188097809,1407428609,1407428609,168.697972887,None,2.5,171.186779079,,,,,,1407428612,2014_Aug_07_1720,60.0234619725,semact_fmri_builder,002,md014,
4,object,trial_images_objects\r_garden clippers.png,n,n,,105,garden_clippers,,,,,,,0,1,1,3,,,,,,,,,,,,,,,,,0,0,0,0,0,10,10,10,,,,,,,,,,,,,,,173.686002601,1407428614,1407428615,174.194456023,None,3.5,176.701282237,,,,,,1407428617,2014_Aug_07_1720,60.0234619725,semact_fmri_builder,002,md014,
4,animal,trial_images_animals\r_koala.png,f,n,,88,koala,,,,,,,0,1,1,3,,,,,,,,,,,,,,,,,0,0,0,0,0,11,11,8,,,,,,,,,,,,,,,180.200153817,1407428621,1407428621,180.719363533,3,0.5,183.198863158,,,1407428623,182.39900641,1.67935764074,1407428624,2014_Aug_07_1720,60.0234619725,semact_fmri_builder,002,md014,
4,object,trial_images_objects\r_tin_opener.png,n,n,,95,tin_opener,,,,,,,0,1,1,3,,,,,,,,,,,,,,,,,0,0,0,0,0,12,12,6,,,,,,,,,,,,,,,183.698834634,1407428624,1407428625,184.209405147,3,2.5,186.697522243,,,1407428626,185.597747927,1.38808199244,1407428627,2014_Aug_07_1720,60.0234619725,semact_fmri_builder,002,md014,
4,object,trial_images_objects\r_scoop.png,n,n,,110,scoop,,,,,,,0,1,1,3,,,,,,,,,,,,,,,,,0,0,0,0,0,13,13,5,,,,,,,,,,,,,,,189.196686605,1407428630,1407428630,189.706461473,None,0.5,192.195389004,,,,,,1407428633,2014_Aug_07_1720,60.0234619725,semact_fmri_builder,002,md014,
4,,,,,,,,,,,,,,0,1,1,3,,,,,,,,,,,,,,,,,0,0,0,0,,,,,,,,,,,,,,,,,,,,,,,,,,,,,,,,2014_Aug_07_1720,60.0234619725,semact_fmri_builder,002,md014,
4,,,,,,,,,,,,,,0,1,1,3,,,,,,,,,,,,,,,,,,,,,,,,,,,,,,,,,,,,,,,,,,,,,,,,,,,,2014_Aug_07_1720,60.0234619725,semact_fmri_builder,002,md014,
3,object,trial_images_objects\r_bottle_cleaner.png,n,n,,98,,bottle_cleaner,,,,,,0,2,2,2,,,,,,,,,,,,,0,0,0,0,,,,,,,,,0,0,0,0,,,,,,,,,1407428636,195.707294546,198.727340805,1407428639,1407428640,199.216321158,None,1.5,201.708500086,,,,,,1407428642,2014_Aug_07_1720,60.0234619725,semact_fmri_builder,002,md014,
3,animal,trial_images_animals\r_polecat.png,n,n,,89,,polecat,,,,,,0,2,2,2,,,,,,,,,,,,,0,0,0,0,,,,,,,,,0,1,1,6,,,,,,,,,,,203.207949081,1407428644,1407428644,203.718160105,None,2.5,206.206610128,,,,,,1407428647,2014_Aug_07_1720,60.0234619725,semact_fmri_builder,002,md014,
3,animal,trial_images_animals\r_wallaby.png,f,v,,83,,wallaby,,,,,,0,2,2,2,,,,,,,,,,,,,0,0,0,0,,,,,,,,,0,2,2,11,,,,,,,,,,,208.705839687,1407428649,1407428650,209.216105042,3,0.5,211.704612415,,,1407428651,210.155019699,0.938597425867,1407428652,2014_Aug_07_1720,60.0234619725,semact_fmri_builder,002,md014,
3,object,trial_images_objects\r_hairbrush.png,n,n,,106,,hairbrush,,,,,,0,2,2,2,,,,,,,,,,,,,0,0,0,0,,,,,,,,,0,3,3,2,,,,,,,,,,,212.204483379,1407428653,1407428653,212.713310476,None,0.5,215.203149256,,,,,,1407428656,2014_Aug_07_1720,60.0234619725,semact_fmri_builder,002,md014,
3,animal,trial_images_animals\r_ladybird.png,n,n,,72,,ladybird,,,,,,0,2,2,2,,,,,,,,,,,,,0,0,0,0,,,,,,,,,0,4,4,5,,,,,,,,,,,215.703115601,1407428656,1407428657,216.212863002,None,2.5,218.701805322,,,,,,1407428659,2014_Aug_07_1720,60.0234619725,semact_fmri_builder,002,md014,
3,animal,trial_images_animals\r_otter.png,n,n,,86,,otter,,,,,,0,2,2,2,,,,,,,,,,,,,0,0,0,0,,,,,,,,,0,5,5,12,,,,,,,,,,,221.201057519,1407428662,1407428662,221.713341264,None,1.5,224.199722188,,,,,,1407428665,2014_Aug_07_1720,60.0234619725,semact_fmri_builder,002,md014,
3,object,trial_images_objects\r_crosscut_saw.png,n,n,,100,,crosscut_saw,,,,,,0,2,2,2,,,,,,,,,,,,,0,0,0,0,,,,,,,,,0,6,6,7,,,,,,,,,,,225.699297653,1407428666,1407428667,226.206784893,None,1.5,228.697982244,,,,,,1407428669,2014_Aug_07_1720,60.0234619725,semact_fmri_builder,002,md014,
3,object,trial_images_objects\r_tweezers.png,n,n,,103,,tweezers,,,,,,0,2,2,2,,,,,,,,,,,,,0,0,0,0,,,,,,,,,0,7,7,1,,,,,,,,,,,230.197577932,1407428671,1407428671,230.706233888,None,0.5,233.196235659,,,,,,1407428674,2014_Aug_07_1720,60.0234619725,semact_fmri_builder,002,md014,
3,object,trial_images_objects\r_african_sickle.png,f,n,,94,,african_sickle,,,,,,0,2,2,2,,,,,,,,,,,,,0,0,0,0,,,,,,,,,0,8,8,3,,,,,,,,,,,233.696215889,1407428674,1407428675,234.203795189,None,1.5,236.694880256,,,,,,1407428677,2014_Aug_07_1720,60.0234619725,semact_fmri_builder,002,md014,
3,animal,trial_images_animals\r_swan2.png,n,n,,90,,swan2,,,,,,0,2,2,2,,,,,,,,,,,,,0,0,0,0,,,,,,,,,0,9,9,13,,,,,,,,,,,238.211158221,1407428679,1407428679,238.724392453,None,0.5,241.209805384,,,,,,1407428682,2014_Aug_07_1720,60.0234619725,semact_fmri_builder,002,md014,
3,animal,trial_images_animals\r_jerboas.png,f,v,,82,,jerboas,,,,,,0,2,2,2,,,,,,,,,,,,,0,0,0,0,,,,,,,,,0,10,10,9,,,,,,,,,,,241.709805233,1407428682,1407428683,242.221318687,3,3.5,244.708537514,,,1407428685,243.875371147,1.65377688206,1407428685,2014_Aug_07_1720,60.0234619725,semact_fmri_builder,002,md014,
3,animal,trial_images_animals\r_hedgehog.png,n,n,,80,,hedgehog,,,,,,0,2,2,2,,,,,,,,,,,,,0,0,0,0,,,,,,,,,0,11,11,4,,,,,,,,,,,248.207330917,1407428689,1407428689,248.726328139,None,1.5,251.206002227,,,,,,1407428692,2014_Aug_07_1720,60.0234619725,semact_fmri_builder,002,md014,
3,animal,trial_images_animals\r_moth.png,n,n,,66,,moth,,,,,,0,2,2,2,,,,,,,,,,,,,0,0,0,0,,,,,,,,,0,12,12,10,,,,,,,,,,,252.705582521,1407428693,1407428694,253.215300946,None,1.5,255.704262283,,,,,,1407428696,2014_Aug_07_1720,60.0234619725,semact_fmri_builder,002,md014,
3,animal,trial_images_animals\r_goose_canada.png,n,n,,77,,goose_canada,,,,,,0,2,2,2,,,,,,,,,,,,,0,0,0,0,,,,,,,,,0,13,13,8,,,,,,,,,,,257.20387095,1407428698,1407428698,257.71376927,None,2.5,260.202536223,,,,,,1407428701,2014_Aug_07_1720,60.0234619725,semact_fmri_builder,002,md014,
3,,,,,,,,,,,,,,0,2,2,2,,,,,,,,,,,,,0,0,0,0,,,,,,,,,,,,,,,,,,,,,,,,,,,,,,,,,,,,2014_Aug_07_1720,60.0234619725,semact_fmri_builder,002,md014,
3,,,,,,,,,,,,,,0,2,2,2,,,,,,,,,,,,,,,,,,,,,,,,,,,,,,,,,,,,,,,,,,,,,,,,,,,,2014_Aug_07_1720,60.0234619725,semact_fmri_builder,002,md014,
2,object,trial_images_objects\r_cakeslicer.png,n,n,,92,,,cakeslicer,,,,,0,3,3,1,,,,,,,,,0,0,0,0,,,,,,,,,,,,,,,,,0,0,0,0,,,,,,,268.733269203,1407428709,1407428710,269.223419479,3,0.5,271.714895729,1407428706,265.714373247,1407428711,270.748436857,1.52467781072,,2014_Aug_07_1720,60.0234619725,semact_fmri_builder,002,md014,
2,animal,trial_images_animals\r_highland_cow.png,n,n,,69,,,highland_cow,,,,,0,3,3,1,,,,,,,,,0,0,0,0,,,,,,,,,,,,,,,,,0,1,1,10,,,,,,,272.214636299,1407428713,1407428713,272.727318469,None,1.5,275.213328436,,,,,,,2014_Aug_07_1720,60.0234619725,semact_fmri_builder,002,md014,
2,object,trial_images_objects\r_squeezer.png,n,n,,101,,,squeezer,,,,,0,3,3,1,,,,,,,,,0,0,0,0,,,,,,,,,,,,,,,,,0,2,2,6,,,,,,,276.712923218,1407428717,1407428718,277.223683889,None,1.5,279.711602979,,,,,,,2014_Aug_07_1720,60.0234619725,semact_fmri_builder,002,md014,
2,animal,trial_images_animals\r_pony.png,n,n,,81,,,pony,,,,,0,3,3,1,,,,,,,,,0,0,0,0,,,,,,,,,,,,,,,,,0,3,3,8,,,,,,,281.211206817,1407428722,1407428722,281.724657165,None,0.5,284.209894426,,,,,,,2014_Aug_07_1720,60.0234619725,semact_fmri_builder,002,md014,
2,animal,trial_images_animals\r_owl_whitebarn.png,n,n,,85,,,owl_whitebarn,,,,,0,3,3,1,,,,,,,,,0,0,0,0,,,,,,,,,,,,,,,,,0,4,4,3,,,,,,,284.709834511,1407428725,1407428726,285.221414672,None,3.5,287.708534496,,,,,,,2014_Aug_07_1720,60.0234619725,semact_fmri_builder,002,md014,
2,animal,trial_images_animals\r_deer_fallow.png,n,n,,71,,,deer_fallow,,,,,0,3,3,1,,,,,,,,,0,0,0,0,,,,,,,,,,,,,,,,,0,5,5,2,,,,,,,291.207397925,1407428732,1407428732,291.718539213,3,0.5,294.206132017,,,1407428734,292.889896491,1.17107536076,,2014_Aug_07_1720,60.0234619725,semact_fmri_builder,002,md014,
2,object,trial_images_objects\r_cutteknife.png,n,n,,102,,,cutterknife,,,,,0,3,3,1,,,,,,,,,0,0,0,0,,,,,,,,,,,,,,,,,0,6,6,13,,,,,,,294.722652056,1407428735,1407428736,295.231285374,None,1.5,297.721342985,,,,,,,2014_Aug_07_1720,60.0234619725,semact_fmri_builder,002,md014,
2,object,trial_images_objects\r_paint_roller.png,n,v,,117,,,paint_roller,,,,,0,3,3,1,,,,,,,,,0,0,0,0,,,,,,,,,,,,,,,,,0,7,7,7,,,,,,,299.220950747,1407428740,1407428740,299.729878054,3,2.5,302.219699931,,,1407428741,300.653551409,0.923402907966,,2014_Aug_07_1720,60.0234619725,semact_fmri_builder,002,md014,
2,animal,trial_images_animals\r_vole.png,n,n,,79,,,vole,,,,,0,3,3,1,,,,,,,,,0,0,0,0,,,,,,,,,,,,,,,,,0,8,8,5,,,,,,,304.718856747,1407428745,1407428746,305.229653336,None,2.5,307.717506324,,,,,,,2014_Aug_07_1720,60.0234619725,semact_fmri_builder,002,md014,
2,animal,trial_images_animals\r_grasshopper_common.png,n,v,,70,,,grasshopper_common,,,,,0,3,3,1,,,,,,,,,0,0,0,0,,,,,,,,,,,,,,,,,0,9,9,11,,,,,,,310.216752182,1407428751,1407428751,310.724855774,3,0.5,313.215488085,,,1407428752,311.782603394,1.05747717276,,2014_Aug_07_1720,60.0234619725,semact_fmri_builder,002,md014,
2,animal,trial_images_animals\r_goat2.png,n,n,,76,,,goat2,,,,,0,3,3,1,,,,,,,,,0,0,0,0,,,,,,,,,,,,,,,,,0,10,10,12,,,,,,,313.71538048,1407428754,1407428755,314.225511215,None,1.5,316.714040924,,,,,,,2014_Aug_07_1720,60.0234619725,semact_fmri_builder,002,md014,
2,object,trial_images_objects\r_screwdriver.png,n,n,,115,,,screwdriver,,,,,0,3,3,1,,,,,,,,,0,0,0,0,,,,,,,,,,,,,,,,,0,11,11,9,,,,,,,318.213688528,1407428759,1407428759,318.722623382,None,0.5,321.212324825,,,,,,,2014_Aug_07_1720,60.0234619725,semact_fmri_builder,002,md014,
2,animal,trial_images_animals\r_duck_mallard.png,n,n,,73,,,duck_mallard,,,,,0,3,3,1,,,,,,,,,0,0,0,0,,,,,,,,,,,,,,,,,0,12,12,1,,,,,,,321.71230113,1407428762,1407428763,322.223461132,None,1.5,324.710985419,,,,,,,2014_Aug_07_1720,60.0234619725,semact_fmri_builder,002,md014,
2,object,trial_images_objects\r_hammer.png,n,v,,107,,,hammer,,,,,0,3,3,1,,,,,,,,,0,0,0,0,,,,,,,,,,,,,,,,,0,13,13,4,,,,,,,326.210559073,1407428767,1407428767,326.719627339,3,2.5,329.209356853,,,1407428768,327.676579827,0.95668083393,,2014_Aug_07_1720,60.0234619725,semact_fmri_builder,002,md014,
2,,,,,,,,,,,,,,0,3,3,1,,,,,,,,,0,0,0,0,,,,,,,,,,,,,,,,,,,,,,,,,,,,,,,,,,,,,,,,2014_Aug_07_1720,60.0234619725,semact_fmri_builder,002,md014,
2,,,,,,,,,,,,,,0,3,3,1,,,,,,,,,,,,,,,,,,,,,,,,,,,,,,,,,,,,,,,,,,,,,,,,,,,,2014_Aug_07_1720,60.0234619725,semact_fmri_builder,002,md014,
