selectBlock,category,paths,semantic,action,number,image4,image3,image2,image1,trigger_loop.thisRepN,trigger_loop.thisTrialN,trigger_loop.thisN,trigger_loop.thisIndex,blockSelectLoop.thisRepN,blockSelectLoop.thisTrialN,blockSelectLoop.thisN,blockSelectLoop.thisIndex,b1loop.thisRepN,b1loop.thisTrialN,b1loop.thisN,b1loop.thisIndex,b2loop.thisRepN,b2loop.thisTrialN,b2loop.thisN,b2loop.thisIndex,b3loop.thisRepN,b3loop.thisTrialN,b3loop.thisN,b3loop.thisIndex,b4loop.thisRepN,b4loop.thisTrialN,b4loop.thisN,b4loop.thisIndex,b4_trialLoop.thisRepN,b4_trialLoop.thisTrialN,b4_trialLoop.thisN,b4_trialLoop.thisIndex,b3_trialLoop.thisRepN,b3_trialLoop.thisTrialN,b3_trialLoop.thisN,b3_trialLoop.thisIndex,b2_trialLoop.thisRepN,b2_trialLoop.thisTrialN,b2_trialLoop.thisN,b2_trialLoop.thisIndex,b1_trialLoop.thisRepN,b1_trialLoop.thisTrialN,b1_trialLoop.thisN,b1_trialLoop.thisIndex,GenInstrAbsTime,GenInstrTime,triggerClock,triggerAbsClock,ActInstr_startAbstime,ActInstr_starttime,startFixAbstime,startFixtime,Img_startAbstime,Img_starttime,key_resp_2.keys,JitDur,startJitAbstime,startJittime,RespgetAbsTime,Respgettime,key_resp_2.rt,SemInstr_startAbstime,SemInstr_starttime,date,frameRate,expName,session,participant,
,,,,,,,,,,0,0,0,0,,,,,,,,,,,,,,,,,,,,,,,,,,,,,,,,,,,,,1407437199,9.93035815779,37.5910263,1407437227,,,,,,,,,,,,,,,,2014_Aug_07_1946,60.0101978155,semact_fmri_builder,002,sh015,
4,animal,trial_images_animals\r_giraffe.png,f,n,67,giraffe,,,,,,,,0,0,0,3,,,,,,,,,,,,,0,0,0,0,0,0,0,2,,,,,,,,,,,,,,,,,1407437227,37.6255728505,1407437230,40.6395723923,1407437230,41.1359396228,None,0.5,1407437233,43.6220153895,,,,,,2014_Aug_07_1946,60.0101978155,semact_fmri_builder,002,sh015,
4,object,trial_images_objects\r_rake.png,n,n,112,rake,,,,,,,,0,0,0,3,,,,,,,,,,,,,0,0,0,0,0,1,1,7,,,,,,,,,,,,,,,,,,,1407437233,44.1218099888,1407437234,44.6291780019,None,1.5,1407437236,47.1204906556,,,,,,2014_Aug_07_1946,60.0101978155,semact_fmri_builder,002,sh015,
4,animal,trial_images_animals\r_highland_cow.png,n,n,69,highland_cow,,,,,,,,0,0,0,3,,,,,,,,,,,,,0,0,0,0,0,2,2,12,,,,,,,,,,,,,,,,,,,1407437238,48.6201113963,1407437238,49.1329245644,None,1.5,1407437241,51.6187700288,,,,,,2014_Aug_07_1946,60.0101978155,semact_fmri_builder,002,sh015,
4,animal,trial_images_animals\r_robin.png,n,n,62,robin,,,,,,,,0,0,0,3,,,,,,,,,,,,,0,0,0,0,0,3,3,1,,,,,,,,,,,,,,,,,,,1407437242,53.1183916751,1407437243,53.6320421414,3,1.5,1407437245,56.1171921714,1407437244,55.0673997906,1.43503649371,,,2014_Aug_07_1946,60.0101978155,semact_fmri_builder,002,sh015,
4,animal,trial_images_animals\r_fox2.png,n,n,74,fox2,,,,,,,,0,0,0,3,,,,,,,,,,,,,0,0,0,0,0,4,4,6,,,,,,,,,,,,,,,,,,,1407437247,57.6167024395,1407437247,58.1270465739,None,1.5,1407437250,60.6153405471,,,,,,2014_Aug_07_1946,60.0101978155,semact_fmri_builder,002,sh015,
4,object,trial_images_objects\r_mop.png,n,n,93,mop,,,,,,,,0,0,0,3,,,,,,,,,,,,,0,0,0,0,0,5,5,10,,,,,,,,,,,,,,,,,,,1407437251,62.1149129937,1407437252,62.623282203,None,0.5,1407437254,65.1135978862,,,,,,2014_Aug_07_1946,60.0101978155,semact_fmri_builder,002,sh015,
4,object,trial_images_objects\r_squeezer.png,n,n,101,squeezer,,,,,,,,0,0,0,3,,,,,,,,,,,,,0,0,0,0,0,6,6,3,,,,,,,,,,,,,,,,,,,1407437255,65.6135980371,1407437255,66.1242150329,None,1.5,1407437258,68.612300738,,,,,,2014_Aug_07_1946,60.0101978155,semact_fmri_builder,002,sh015,
4,object,trial_images_objects\r_scissors.png,n,n,114,scissors,,,,,,,,0,0,0,3,,,,,,,,,,,,,0,0,0,0,0,7,7,11,,,,,,,,,,,,,,,,,,,1407437259,70.1118523578,1407437260,70.6190093863,None,0.5,1407437262,73.1105840351,,,,,,2014_Aug_07_1946,60.0101978155,semact_fmri_builder,002,sh015,
4,animal,trial_images_animals\r_owl_whitebarn.png,n,n,85,owl_whitebarn,,,,,,,,0,0,0,3,,,,,,,,,,,,,0,0,0,0,0,8,8,5,,,,,,,,,,,,,,,,,,,1407437263,73.6105343828,1407437263,74.1200185811,3,2.5,1407437266,76.62591272,1407437265,75.4095393441,1.28923673355,,,2014_Aug_07_1946,60.0101978155,semact_fmri_builder,002,sh015,
4,animal,trial_images_animals\r_duck_mallard.png,n,n,73,duck_mallard,,,,,,,,0,0,0,3,,,,,,,,,,,,,0,0,0,0,0,9,9,8,,,,,,,,,,,,,,,,,,,1407437268,79.1250831186,1407437269,79.6368344211,3,3.5,1407437271,82.1237930636,1407437270,80.9574296937,1.32031727989,,,2014_Aug_07_1946,60.0101978155,semact_fmri_builder,002,sh015,
4,animal,trial_images_animals\r_dog_terrier.png,n,n,68,dog_terrier,,,,,,,,0,0,0,3,,,,,,,,,,,,,0,0,0,0,0,10,10,0,,,,,,,,,,,,,,,,,,,1407437275,85.6225774116,1407437275,86.1336046051,None,2.5,1407437278,88.621238157,,,,,,2014_Aug_07_1946,60.0101978155,semact_fmri_builder,002,sh015,
4,object,trial_images_objects\r_whisk.png,n,n,116,whisk,,,,,,,,0,0,0,3,,,,,,,,,,,,,0,0,0,0,0,11,11,9,,,,,,,,,,,,,,,,,,,1407437280,91.1205006162,1407437281,91.631495513,None,2.5,1407437283,94.1191378183,,,,,,2014_Aug_07_1946,60.0101978155,semact_fmri_builder,002,sh015,
4,animal,trial_images_animals\r_goose_canada.png,n,n,77,goose_canada,,,,,,,,0,0,0,3,,,,,,,,,,,,,0,0,0,0,0,12,12,4,,,,,,,,,,,,,,,,,,,1407437286,96.6184488733,1407437286,97.1289101208,3,2.5,1407437289,99.6170821515,1407437287,98.2007430041,1.07156273836,,,2014_Aug_07_1946,60.0101978155,semact_fmri_builder,002,sh015,
4,object,trial_images_objects\r_stapler.png,n,n,97,stapler,,,,,,,,0,0,0,3,,,,,,,,,,,,,0,0,0,0,0,13,13,13,,,,,,,,,,,,,,,,,,,1407437291,102.116216028,1407437292,102.62567125,3,2.5,1407437294,105.114979398,1407437294,104.698319095,2.07236472155,,,2014_Aug_07_1946,60.0101978155,semact_fmri_builder,002,sh015,
4,,,,,,,,,,,,,,0,0,0,3,,,,,,,,,,,,,0,0,0,0,,,,,,,,,,,,,,,,,,,,,,,,,,,,,,,,,,,,2014_Aug_07_1946,60.0101978155,semact_fmri_builder,002,sh015,
4,,,,,,,,,,,,,,0,0,0,3,,,,,,,,,,,,,,,,,,,,,,,,,,,,,,,,,,,,,,,,,,,,,,,,,,,,2014_Aug_07_1946,60.0101978155,semact_fmri_builder,002,sh015,
3,object,trial_images_objects\r_bottle_cleaner.png,n,n,98,,bottle_cleaner,,,,,,,0,1,1,2,,,,,,,,,0,0,0,0,,,,,,,,,0,0,0,9,,,,,,,,,,,,,,,1407437303,113.644915224,1407437303,114.13616751,None,3.5,1407437306,116.627358523,,,,1407437300,110.625125829,2014_Aug_07_1946,60.0101978155,semact_fmri_builder,002,sh015,
3,object,trial_images_objects\r_tweezers.png,n,n,103,,tweezers,,,,,,,0,1,1,2,,,,,,,,,0,0,0,0,,,,,,,,,0,1,1,13,,,,,,,,,,,,,,,1407437309,120.125996178,1407437310,120.634572448,None,2.5,1407437312,123.124632777,,,,,,2014_Aug_07_1946,60.0101978155,semact_fmri_builder,002,sh015,
3,animal,trial_images_animals\r_hedgehog.png,n,n,80,,hedgehog,,,,,,,0,1,1,2,,,,,,,,,0,0,0,0,,,,,,,,,0,2,2,6,,,,,,,,,,,,,,,1407437315,125.623883162,1407437315,126.14246415,None,1.5,1407437318,128.622525194,,,,,,2014_Aug_07_1946,60.0101978155,semact_fmri_builder,002,sh015,
3,animal,trial_images_animals\r_vole.png,n,n,79,,vole,,,,,,,0,1,1,2,,,,,,,,,0,0,0,0,,,,,,,,,0,3,3,7,,,,,,,,,,,,,,,1407437319,130.122148953,1407437320,130.632663324,None,3.5,1407437322,133.120810604,,,,,,2014_Aug_07_1946,60.0101978155,semact_fmri_builder,002,sh015,
3,animal,trial_images_animals\r_jerboas.png,f,v,82,,jerboas,,,,,,,0,1,1,2,,,,,,,,,0,0,0,0,,,,,,,,,0,4,4,10,,,,,,,,,,,,,,,1407437326,136.619644453,1407437326,137.132354694,None,2.5,1407437329,139.618300369,,,,,,2014_Aug_07_1946,60.0101978155,semact_fmri_builder,002,sh015,
3,object,trial_images_objects\r_pincer.png,n,n,119,,pincer,,,,,,,0,1,1,2,,,,,,,,,0,0,0,0,,,,,,,,,0,5,5,4,,,,,,,,,,,,,,,1407437331,142.117542907,1407437332,142.625606053,None,0.5,1407437334,145.116282734,,,,,,2014_Aug_07_1946,60.0101978155,semact_fmri_builder,002,sh015,
3,object,trial_images_objects\r_african_sickle.png,f,n,94,,african_sickle,,,,,,,0,1,1,2,,,,,,,,,0,0,0,0,,,,,,,,,0,6,6,3,,,,,,,,,,,,,,,1407437335,145.616212557,1407437335,146.122899925,None,1.5,1407437338,148.614862436,,,,,,2014_Aug_07_1946,60.0101978155,semact_fmri_builder,002,sh015,
3,object,trial_images_objects\r_chopsticks.png,f,n,96,,chopsticks,,,,,,,0,1,1,2,,,,,,,,,0,0,0,0,,,,,,,,,0,7,7,8,,,,,,,,,,,,,,,1407437339,150.114445447,1407437340,150.621529732,3,1.5,1407437342,153.129888076,1407437341,151.663651206,1.04181390066,,,2014_Aug_07_1946,60.0101978155,semact_fmri_builder,002,sh015,
3,object,trial_images_objects\r_pencil.png,n,n,111,,pencil,,,,,,,0,1,1,2,,,,,,,,,0,0,0,0,,,,,,,,,0,8,8,5,,,,,,,,,,,,,,,1407437344,154.629372687,1407437344,155.13691305,None,0.5,1407437347,157.628050939,,,,,,2014_Aug_07_1946,60.0101978155,semact_fmri_builder,002,sh015,
3,object,trial_images_objects\r_cutteknife.png,n,n,102,,cutterknife,,,,,,,0,1,1,2,,,,,,,,,0,0,0,0,,,,,,,,,0,9,9,2,,,,,,,,,,,,,,,1407437347,158.128020303,1407437348,158.636580877,None,0.5,1407437350,161.126695235,,,,,,2014_Aug_07_1946,60.0101978155,semact_fmri_builder,002,sh015,
3,object,trial_images_objects\r_shisha.png,f,n,120,,shisha,,,,,,,0,1,1,2,,,,,,,,,0,0,0,0,,,,,,,,,0,10,10,0,,,,,,,,,,,,,,,1407437351,161.626674861,1407437351,162.136364007,3,1.5,1407437354,164.625453926,1407437352,163.17579701,1.03916859365,,,2014_Aug_07_1946,60.0101978155,semact_fmri_builder,002,sh015,
3,animal,trial_images_animals\r_sheep_blackfaced.png,n,n,87,,sheep_blackfaced,,,,,,,0,1,1,2,,,,,,,,,0,0,0,0,,,,,,,,,0,11,11,12,,,,,,,,,,,,,,,1407437355,166.12505867,1407437356,166.640754993,None,1.5,1407437358,169.123606226,,,,,,2014_Aug_07_1946,60.0101978155,semact_fmri_builder,002,sh015,
3,object,trial_images_objects\r_computer_mouse.png,n,n,99,,computer_mouse,,,,,,,0,1,1,2,,,,,,,,,0,0,0,0,,,,,,,,,0,12,12,1,,,,,,,,,,,,,,,1407437360,170.623216402,1407437360,171.131515283,None,1.5,1407437363,173.621872922,,,,,,2014_Aug_07_1946,60.0101978155,semact_fmri_builder,002,sh015,
3,animal,trial_images_animals\r_penguin.png,f,n,84,,penguin,,,,,,,0,1,1,2,,,,,,,,,0,0,0,0,,,,,,,,,0,13,13,11,,,,,,,,,,,,,,,1407437364,175.121493965,1407437365,175.630072348,3,1.5,1407437367,178.120281784,1407437366,176.720586881,1.09024016333,,,2014_Aug_07_1946,60.0101978155,semact_fmri_builder,002,sh015,
3,,,,,,,,,,,,,,0,1,1,2,,,,,,,,,0,0,0,0,,,,,,,,,,,,,,,,,,,,,,,,,,,,,,,,,,,,,,,,2014_Aug_07_1946,60.0101978155,semact_fmri_builder,002,sh015,
3,,,,,,,,,,,,,,0,1,1,2,,,,,,,,,,,,,,,,,,,,,,,,,,,,,,,,,,,,,,,,,,,,,,,,,,,,2014_Aug_07_1946,60.0101978155,semact_fmri_builder,002,sh015,
2,animal,trial_images_animals\r_deer_fallow.png,n,n,71,,,deer_fallow,,,,,,0,2,2,1,,,,,0,0,0,0,,,,,,,,,,,,,,,,,0,0,0,12,,,,,,,,,1407437372,182.632046971,1407437375,185.650865656,1407437375,186.143301448,None,2.5,,188.632885476,,,,,,2014_Aug_07_1946,60.0101978155,semact_fmri_builder,002,sh015,
2,object,trial_images_objects\r_garden clippers.png,n,n,105,,,garden_clippers,,,,,,0,2,2,1,,,,,0,0,0,0,,,,,,,,,,,,,,,,,0,1,1,13,,,,,,,,,,,1407437380,191.13192699,1407437381,191.639449544,None,2.5,,194.130633011,,,,,,2014_Aug_07_1946,60.0101978155,semact_fmri_builder,002,sh015,
2,object,trial_images_objects\r_paint_roller.png,n,v,117,,,paint_roller,,,,,,0,2,2,1,,,,,0,0,0,0,,,,,,,,,,,,,,,,,0,2,2,5,,,,,,,,,,,1407437386,196.629820313,1407437386,197.13928127,3,1.5,,199.628623828,1407437388,198.578907812,1.43931957295,,,2014_Aug_07_1946,60.0101978155,semact_fmri_builder,002,sh015,
2,animal,trial_images_animals\r_otter.png,n,n,86,,,otter,,,,,,0,2,2,1,,,,,0,0,0,0,,,,,,,,,,,,,,,,,0,3,3,7,,,,,,,,,,,1407437390,201.12808218,1407437391,201.640401541,None,2.5,,204.126840419,,,,,,2014_Aug_07_1946,60.0101978155,semact_fmri_builder,002,sh015,
2,object,trial_images_objects\r_teapot.png,n,n,109,,,teapot,,,,,,0,2,2,1,,,,,0,0,0,0,,,,,,,,,,,,,,,,,0,4,4,1,,,,,,,,,,,1407437396,206.625974597,1407437396,207.136593705,None,2.5,,209.62464319,,,,,,2014_Aug_07_1946,60.0101978155,semact_fmri_builder,002,sh015,
2,animal,trial_images_animals\r_toad.png,n,v,75,,,toad,,,,,,0,2,2,1,,,,,0,0,0,0,,,,,,,,,,,,,,,,,0,5,5,10,,,,,,,,,,,1407437401,212.140518201,1407437402,212.651866248,3,1.5,,215.139323225,1407437403,213.556547663,0.904400403617,,,2014_Aug_07_1946,60.0101978155,semact_fmri_builder,002,sh015,
2,animal,trial_images_animals\r_pony.png,n,n,81,,,pony,,,,,,0,2,2,1,,,,,0,0,0,0,,,,,,,,,,,,,,,,,0,6,6,4,,,,,,,,,,,1407437406,216.638827758,1407437406,217.150632486,None,0.5,,219.637517782,,,,,,2014_Aug_07_1946,60.0101978155,semact_fmri_builder,002,sh015,
2,animal,trial_images_animals\r_crow.png,n,n,64,,,crow,,,,,,0,2,2,1,,,,,0,0,0,0,,,,,,,,,,,,,,,,,0,7,7,0,,,,,,,,,,,1407437409,220.137464809,1407437410,220.648633565,3,0.5,,223.136203429,1407437411,221.953256483,1.3043479442,,,2014_Aug_07_1946,60.0101978155,semact_fmri_builder,002,sh015,
2,animal,trial_images_animals\r_hare.png,n,v,78,,,hare,,,,,,0,2,2,1,,,,,0,0,0,0,,,,,,,,,,,,,,,,,0,8,8,2,,,,,,,,,,,1407437413,223.636080128,1407437413,224.144997173,3,1.5,,226.634877304,1407437415,225.918438883,1.77315345407,,,2014_Aug_07_1946,60.0101978155,semact_fmri_builder,002,sh015,
2,animal,trial_images_animals\r_koala.png,f,n,88,,,koala,,,,,,0,2,2,1,,,,,0,0,0,0,,,,,,,,,,,,,,,,,0,9,9,8,,,,,,,,,,,1407437417,228.134399344,1407437418,228.649049497,3,0.5,,231.133109591,1407437420,230.816486807,2.1671532796,,,2014_Aug_07_1946,60.0101978155,semact_fmri_builder,002,sh015,
2,animal,trial_images_animals\r_swan2.png,n,n,90,,,swan2,,,,,,0,2,2,1,,,,,0,0,0,0,,,,,,,,,,,,,,,,,0,10,10,9,,,,,,,,,,,1407437421,231.633010135,1407437421,232.148403715,3,1.5,,234.631784674,1407437423,233.615421741,1.46673490215,,,2014_Aug_07_1946,60.0101978155,semact_fmri_builder,002,sh015,
2,animal,trial_images_animals\r_wallaby.png,f,v,83,,,wallaby,,,,,,0,2,2,1,,,,,0,0,0,0,,,,,,,,,,,,,,,,,0,11,11,6,,,,,,,,,,,1407437425,236.131303997,1407437426,236.641617344,3,0.5,,239.130035976,1407437428,238.546910282,1.90500921058,,,2014_Aug_07_1946,60.0101978155,semact_fmri_builder,002,sh015,
2,object,trial_images_objects\r_nailclipper.png,n,n,113,,,nailclipper,,,,,,0,2,2,1,,,,,0,0,0,0,,,,,,,,,,,,,,,,,0,12,12,3,,,,,,,,,,,1407437429,239.629965497,1407437429,240.137029559,3,0.5,,242.628695363,1407437431,242.245442475,2.10813250803,,,2014_Aug_07_1946,60.0101978155,semact_fmri_builder,002,sh015,
2,object,trial_images_objects\r_handbell.png,n,v,91,,,handbell,,,,,,0,2,2,1,,,,,0,0,0,0,,,,,,,,,,,,,,,,,0,13,13,11,,,,,,,,,,,1407437432,243.128590173,1407437433,243.639738705,None,1.5,,246.127282913,,,,,,2014_Aug_07_1946,60.0101978155,semact_fmri_builder,002,sh015,
2,,,,,,,,,,,,,,0,2,2,1,,,,,0,0,0,0,,,,,,,,,,,,,,,,,,,,,,,,,,,,,,,,,,,,,,,,,,,,2014_Aug_07_1946,60.0101978155,semact_fmri_builder,002,sh015,
2,,,,,,,,,,,,,,0,2,2,1,,,,,,,,,,,,,,,,,,,,,,,,,,,,,,,,,,,,,,,,,,,,,,,,,,,,2014_Aug_07_1946,60.0101978155,semact_fmri_builder,002,sh015,
1,animal,trial_images_animals\r_beaver.png,n,n,63,,,,beaver,,,,,0,3,3,0,0,0,0,0,,,,,,,,,,,,,,,,,,,,,,,,,0,0,0,2,,,,,,,1407437443,253.657839921,1407437443,254.155179674,3,1.5,,256.640148903,1407437445,255.773624925,1.61808908261,1407437440,250.638889031,2014_Aug_07_1946,60.0101978155,semact_fmri_builder,002,sh015,
1,object,trial_images_objects\r_potatomasher.png,n,v,118,,,,potatomasher,,,,,0,3,3,0,0,0,0,0,,,,,,,,,,,,,,,,,,,,,,,,,0,1,1,6,,,,,,,1407437447,258.139497989,1407437448,258.646258101,3,1.5,,261.138252003,1407437450,260.938250614,2.29170757827,,,2014_Aug_07_1946,60.0101978155,semact_fmri_builder,002,sh015,
1,animal,trial_images_animals\r_bulldog_whiteenglish.png,n,n,65,,,,bulldog_whiteenglish,,,,,0,3,3,0,0,0,0,0,,,,,,,,,,,,,,,,,,,,,,,,,0,2,2,10,,,,,,,1407437452,262.637820827,1407437452,263.149534098,None,1.5,,265.636467084,,,,,,2014_Aug_07_1946,60.0101978155,semact_fmri_builder,002,sh015,
1,animal,trial_images_animals\r_grasshopper_common.png,n,v,70,,,,grasshopper_common,,,,,0,3,3,0,0,0,0,0,,,,,,,,,,,,,,,,,,,,,,,,,0,3,3,12,,,,,,,1407437456,267.136046473,1407437457,267.646362537,None,1.5,,270.151413341,,,,,,2014_Aug_07_1946,60.0101978155,semact_fmri_builder,002,sh015,
1,object,trial_images_objects\r_screwdriver.png,n,n,115,,,,screwdriver,,,,,0,3,3,0,0,0,0,0,,,,,,,,,,,,,,,,,,,,,,,,,0,4,4,13,,,,,,,1407437461,271.650976129,1407437461,272.159838239,None,2.5,,274.649663738,,,,,,2014_Aug_07_1946,60.0101978155,semact_fmri_builder,002,sh015,
1,animal,trial_images_animals\r_badger2.png,n,n,61,,,,badger2,,,,,0,3,3,0,0,0,0,0,,,,,,,,,,,,,,,,,,,,,,,,,0,5,5,9,,,,,,,1407437466,277.148896918,1407437467,277.663425431,None,0.5,,280.147571247,,,,,,2014_Aug_07_1946,60.0101978155,semact_fmri_builder,002,sh015,
1,animal,trial_images_animals\r_polecat.png,n,n,89,,,,polecat,,,,,0,3,3,0,0,0,0,0,,,,,,,,,,,,,,,,,,,,,,,,,0,6,6,1,,,,,,,1407437470,280.64753397,1407437470,281.160453988,None,0.5,,283.646205279,,,,,,2014_Aug_07_1946,60.0101978155,semact_fmri_builder,002,sh015,
1,animal,trial_images_animals\r_moth.png,n,n,66,,,,moth,,,,,0,3,3,0,0,0,0,0,,,,,,,,,,,,,,,,,,,,,,,,,0,7,7,0,,,,,,,1407437473,284.146233501,1407437474,284.659819978,None,2.5,,287.144858026,,,,,,2014_Aug_07_1946,60.0101978155,semact_fmri_builder,002,sh015,
1,object,trial_images_objects\r_scoop.png,n,n,110,,,,scoop,,,,,0,3,3,0,0,0,0,0,,,,,,,,,,,,,,,,,,,,,,,,,0,8,8,7,,,,,,,1407437479,289.644072795,1407437479,290.154476995,None,0.5,,292.6427927,,,,,,2014_Aug_07_1946,60.0101978155,semact_fmri_builder,002,sh015,
1,object,trial_images_objects\r_hammer.png,n,v,107,,,,hammer,,,,,0,3,3,0,0,0,0,0,,,,,,,,,,,,,,,,,,,,,,,,,0,9,9,4,,,,,,,1407437482,293.14274999,1407437483,293.652598809,None,1.5,,296.141403794,,,,,,2014_Aug_07_1946,60.0101978155,semact_fmri_builder,002,sh015,
1,object,trial_images_objects\r_frypan.png,n,n,104,,,,frypan,,,,,0,3,3,0,0,0,0,0,,,,,,,,,,,,,,,,,,,,,,,,,0,10,10,3,,,,,,,1407437487,297.641011253,1407437487,298.151324299,None,1.5,,300.639695844,,,,,,2014_Aug_07_1946,60.0101978155,semact_fmri_builder,002,sh015,
1,object,trial_images_objects\r_key.png,n,n,108,,,,key,,,,,0,3,3,0,0,0,0,0,,,,,,,,,,,,,,,,,,,,,,,,,0,11,11,11,,,,,,,1407437491,302.139310548,1407437492,302.648256268,None,3.5,,305.137989102,,,,,,2014_Aug_07_1946,60.0101978155,semact_fmri_builder,002,sh015,
1,object,trial_images_objects\r_crosscut_saw.png,n,n,100,,,,crosscut_saw,,,,,0,3,3,0,0,0,0,0,,,,,,,,,,,,,,,,,,,,,,,,,0,12,12,8,,,,,,,1407437498,308.636752925,1407437498,309.144474994,None,2.5,,311.635458644,,,,,,2014_Aug_07_1946,60.0101978155,semact_fmri_builder,002,sh015,
1,object,trial_images_objects\r_tin_opener.png,n,n,95,,,,tin_opener,,,,,0,3,3,0,0,0,0,0,,,,,,,,,,,,,,,,,,,,,,,,,0,13,13,5,,,,,,,1407437503,314.15137048,1407437504,314.662661781,None,3.5,,317.150015228,,,,,,2014_Aug_07_1946,60.0101978155,semact_fmri_builder,002,sh015,
1,,,,,,,,,,,,,,0,3,3,0,0,0,0,0,,,,,,,,,,,,,,,,,,,,,,,,,,,,,,,,,,,,,,,,,,,,,,,,2014_Aug_07_1946,60.0101978155,semact_fmri_builder,002,sh015,
1,,,,,,,,,,,,,,0,3,3,0,,,,,,,,,,,,,,,,,,,,,,,,,,,,,,,,,,,,,,,,,,,,,,,,,,,,2014_Aug_07_1946,60.0101978155,semact_fmri_builder,002,sh015,
