selectBlock,category,paths,semantic,action,image2,number,image4,image3,image1,trigger_loop.thisRepN,trigger_loop.thisTrialN,trigger_loop.thisN,trigger_loop.thisIndex,blockSelectLoop.thisRepN,blockSelectLoop.thisTrialN,blockSelectLoop.thisN,blockSelectLoop.thisIndex,b1loop.thisRepN,b1loop.thisTrialN,b1loop.thisN,b1loop.thisIndex,b2loop.thisRepN,b2loop.thisTrialN,b2loop.thisN,b2loop.thisIndex,b2_trialLoop.thisRepN,b2_trialLoop.thisTrialN,b2_trialLoop.thisN,b2_trialLoop.thisIndex,b3loop.thisRepN,b3loop.thisTrialN,b3loop.thisN,b3loop.thisIndex,b4loop.thisRepN,b4loop.thisTrialN,b4loop.thisN,b4loop.thisIndex,b4_trialLoop.thisRepN,b4_trialLoop.thisTrialN,b4_trialLoop.thisN,b4_trialLoop.thisIndex,b3_trialLoop.thisRepN,b3_trialLoop.thisTrialN,b3_trialLoop.thisN,b3_trialLoop.thisIndex,b1loop.thisTrial,b1_trialLoop.thisRepN,b1_trialLoop.thisTrialN,b1_trialLoop.thisN,b1_trialLoop.thisIndex,GenInstrAbsTime,GenInstrTime,triggerClock,triggerAbsClock,ActInstr_startAbstime,ActInstr_starttime,FixDur,startFixtime,Img_startAbstime,Img_starttime,key_resp_2.keys,RespgetAbsTime,Respgettime,key_resp_2.rt,startfixAbstime,startfixtime,RespgetTime,SemInstr_startAbstime,SemInstr_starttime,date,frameRate,expName,session,participant
,,,,,,,,,,0,0,0,0,,,,,,,,,,,,,,,,,,,,,,,,,,,,,,,,,,,,,,1393508226,5.398992985,57.9688019,1393508279,,,,,,,,,,,,,,,,2014_Feb_27_1337,60.01507189,semact_fmri_builder,1,ag
2,animal,trial_images_animals\r_swan2.png,n,n,swan2,90,,,,,,,,0,0,0,1,,,,,0,0,0,0,0,0,0,10,,,,,,,,,,,,,,,,,,,,,,,,,,1393508279,57.99692812,2,63.01947806,1393508286,65.01539712,None,,,,,,,,,2014_Feb_27_1337,60.01507189,semact_fmri_builder,1,ag
2,animal,trial_images_animals\r_pony.png,n,n,pony,81,,,,,,,,0,0,0,1,,,,,0,0,0,0,0,1,1,12,,,,,,,,,,,,,,,,,,,,,,,,,,,,3,67.99804012,1393508292,71.0093083,None,,,,,,,,,2014_Feb_27_1337,60.01507189,semact_fmri_builder,1,ag
2,animal,trial_images_animals\r_crow.png,n,n,crow,64,,,,,,,,0,0,0,1,,,,,0,0,0,0,0,2,2,7,,,,,,,,,,,,,,,,,,,,,,,,,,,,4,73.99577266,1393508299,78.00555123,None,,,,,,,,,2014_Feb_27_1337,60.01507189,semact_fmri_builder,1,ag
2,object,trial_images_objects\r_hairbrush.png,n,n,hairbrush,106,,,,,,,,0,0,0,1,,,,,0,0,0,0,0,3,3,4,,,,,,,,,,,,,,,,,,,,,,,,,,,,4,80.99323112,1393508306,85.00172535,3,1393508308,87.15737145,2.155290831,,,,,,2014_Feb_27_1337,60.01507189,semact_fmri_builder,1,ag
2,object,trial_images_objects\r_nailclipper.png,n,n,nailclipper,113,,,,,,,,0,0,0,1,,,,,0,0,0,0,0,4,4,9,,,,,,,,,,,,,,,,,,,,,,,,,,,,2,87.99083357,1393508311,90.00326264,3,1393508313,91.82231438,1.818741439,,,,,,2014_Feb_27_1337,60.01507189,semact_fmri_builder,1,ag
2,animal,trial_images_animals\r_ladybird.png,n,n,ladybird,72,,,,,,,,0,0,0,1,,,,,0,0,0,0,0,5,5,11,,,,,,,,,,,,,,,,,,,,,,,,,,,,1,93.00569219,1393508315,94.01684265,None,,,,,,,,,2014_Feb_27_1337,60.01507189,semact_fmri_builder,1,ag
2,object,trial_images_objects\r_pencil.png,n,n,pencil,111,,,,,,,,0,0,0,1,,,,,0,0,0,0,0,6,6,1,,,,,,,,,,,,,,,,,,,,,,,,,,,,2,97.0041386,1393508320,99.01491024,None,,,,,,,,,2014_Feb_27_1337,60.01507189,semact_fmri_builder,1,ag
2,object,trial_images_objects\r_chopsticks.png,f,n,chopsticks,96,,,,,,,,0,0,0,1,,,,,0,0,0,0,0,7,7,0,,,,,,,,,,,,,,,,,,,,,,,,,,,,3,102.0023604,1393508326,105.0140877,None,,,,,,,,,2014_Feb_27_1337,60.01507189,semact_fmri_builder,1,ag
2,animal,trial_images_animals\r_hedgehog.png,n,n,hedgehog,80,,,,,,,,0,0,0,1,,,,,0,0,0,0,0,8,8,8,,,,,,,,,,,,,,,,,,,,,,,,,,,,1,108.0001778,1393508330,109.0151611,None,,,,,,,,,2014_Feb_27_1337,60.01507189,semact_fmri_builder,1,ag
2,object,trial_images_objects\r_key.png,n,n,key,108,,,,,,,,0,0,0,1,,,,,0,0,0,0,0,9,9,5,,,,,,,,,,,,,,,,,,,,,,,,,,,,4,111.998703,1393508337,116.0094876,None,,,,,,,,,2014_Feb_27_1337,60.01507189,semact_fmri_builder,1,ag
2,animal,trial_images_animals\r_otter.png,n,n,otter,86,,,,,,,,0,0,0,1,,,,,0,0,0,0,0,10,10,6,,,,,,,,,,,,,,,,,,,,,,,,,,,,4,118.9962538,1393508344,123.00973,None,,,,,,,,,2014_Feb_27_1337,60.01507189,semact_fmri_builder,1,ag
2,object,trial_images_objects\r_paint_roller.png,n,v,paint_roller,117,,,,,,,,0,0,0,1,,,,,0,0,0,0,0,11,11,3,,,,,,,,,,,,,,,,,,,,,,,,,,,,2,125.9937089,1393508349,128.0040272,None,,,,,,,,,2014_Feb_27_1337,60.01507189,semact_fmri_builder,1,ag
2,animal,trial_images_animals\r_owl_whitebarn.png,n,n,owl_whitebarn,85,,,,,,,,0,0,0,1,,,,,0,0,0,0,0,12,12,13,,,,,,,,,,,,,,,,,,,,,,,,,,,,1,130.9919024,1393508353,132.0043632,None,,,,,,,,,2014_Feb_27_1337,60.01507189,semact_fmri_builder,1,ag
2,object,trial_images_objects\r_frypan.png,n,n,frypan,104,,,,,,,,0,0,0,1,,,,,0,0,0,0,0,13,13,2,,,,,,,,,,,,,,,,,,,,,,,,,,,,3,134.9904505,1393508359,138.0029964,None,,,,,,,,,2014_Feb_27_1337,60.01507189,semact_fmri_builder,1,ag
2,object,trial_images_objects\r_stapler.png,n,n,stapler,97,,,,,,,,0,0,0,1,,,,,0,0,0,0,0,14,14,14,,,,,,,,,,,,,,,,,,,,,,,,,,,,2,141.0049817,1393508364,143.0147569,None,,,,,,,,,2014_Feb_27_1337,60.01507189,semact_fmri_builder,1,ag
2,,,,,,,,,,,,,,0,0,0,1,,,,,0,0,0,0,,,,,,,,,,,,,,,,,,,,,,,,,,,,,,,,,,,,,,,,,,,,,2014_Feb_27_1337,60.01507189,semact_fmri_builder,1,ag
2,,,,,,,,,,,,,,0,0,0,1,,,,,,,,,,,,,,,,,,,,,,,,,,,,,,,,,,,,,,,,,,,,,,,,,,,,,2014_Feb_27_1337,60.01507189,semact_fmri_builder,1,ag
4,animal,trial_images_animals\r_hare.png,n,v,,78,hare,,,,,,,0,1,1,3,,,,,,,,,,,,,,,,,0,0,0,0,0,0,0,4,,,,,,,,,,,,,,1393508371,150.0258174,4,,1393508380,159.0255204,3,1393508380,,0.605310119,1393508376,155.035327,159.6311988,,,2014_Feb_27_1337,60.01507189,semact_fmri_builder,1,ag
4,animal,trial_images_animals\r_deer_fallow.png,n,n,,71,deer_fallow,,,,,,,0,1,1,3,,,,,,,,,,,,,,,,,0,0,0,0,0,1,1,8,,,,,,,,,,,,,,,,3,,1393508386,165.0225496,None,,,,1393508383,162.0143941,,,,2014_Feb_27_1337,60.01507189,semact_fmri_builder,1,ag
4,animal,trial_images_animals\r_goat2.png,n,n,,76,goat2,,,,,,,0,1,1,3,,,,,,,,,,,,,,,,,0,0,0,0,0,2,2,12,,,,,,,,,,,,,,,,3,,1393508392,171.0205759,None,,,,1393508389,168.0120158,,,,2014_Feb_27_1337,60.01507189,semact_fmri_builder,1,ag
4,object,trial_images_objects\r_pincer.png,n,n,,119,pincer,,,,,,,0,1,1,3,,,,,,,,,,,,,,,,,0,0,0,0,0,3,3,2,,,,,,,,,,,,,,,,1,,1393508396,175.0381638,None,,,,1393508395,174.0264975,,,,2014_Feb_27_1337,60.01507189,semact_fmri_builder,1,ag
4,object,trial_images_objects\r_bottle_cleaner.png,n,n,,98,bottle_cleaner,,,,,,,0,1,1,3,,,,,,,,,,,,,,,,,0,0,0,0,0,4,4,13,,,,,,,,,,,,,,,,2,,1393508401,180.036328,None,,,,1393508399,178.0250664,,,,2014_Feb_27_1337,60.01507189,semact_fmri_builder,1,ag
4,animal,trial_images_animals\r_giraffe.png,f,n,,67,giraffe,,,,,,,0,1,1,3,,,,,,,,,,,,,,,,,0,0,0,0,0,5,5,0,,,,,,,,,,,,,,,,4,,1393508408,187.0323786,None,,,,1393508404,183.0232647,,,,2014_Feb_27_1337,60.01507189,semact_fmri_builder,1,ag
4,animal,trial_images_animals\r_goose_canada.png,n,n,,77,goose_canada,,,,,,,0,1,1,3,,,,,,,,,,,,,,,,,0,0,0,0,0,6,6,14,,,,,,,,,,,,,,,,4,,1393508415,194.0294875,None,,,,1393508411,190.0207778,,,,2014_Feb_27_1337,60.01507189,semact_fmri_builder,1,ag
4,animal,trial_images_animals\r_grasshopper_common.png,n,v,,70,grasshopper_common,,,,,,,0,1,1,3,,,,,,,,,,,,,,,,,0,0,0,0,0,7,7,6,,,,,,,,,,,,,,,,3,,1393508421,200.0301914,3,1393508421,,0.719241234,1393508418,197.0182326,200.7496974,,,2014_Feb_27_1337,60.01507189,semact_fmri_builder,1,ag
4,object,trial_images_objects\r_shisha.png,f,n,,120,shisha,,,,,,,0,1,1,3,,,,,,,,,,,,,,,,,0,0,0,0,0,8,8,9,,,,,,,,,,,,,,,,1,,1393508425,204.0254633,None,,,,1393508424,203.0161288,,,,2014_Feb_27_1337,60.01507189,semact_fmri_builder,1,ag
4,animal,trial_images_animals\r_duck_mallard.png,n,n,,73,duck_mallard,,,,,,,0,1,1,3,,,,,,,,,,,,,,,,,0,0,0,0,0,9,9,11,,,,,,,,,,,,,,,,4,,1393508432,211.0248871,None,,,,1393508428,207.0146295,,,,2014_Feb_27_1337,60.01507189,semact_fmri_builder,1,ag
4,object,trial_images_objects\r_scissors.png,n,n,,114,scissors,,,,,,,0,1,1,3,,,,,,,,,,,,,,,,,0,0,0,0,0,10,10,1,,,,,,,,,,,,,,,,4,,1393508439,218.0210446,None,,,,1393508435,214.0120907,,,,2014_Feb_27_1337,60.01507189,semact_fmri_builder,1,ag
4,object,trial_images_objects\r_squeezer.png,n,n,,101,squeezer,,,,,,,0,1,1,3,,,,,,,,,,,,,,,,,0,0,0,0,0,11,11,3,,,,,,,,,,,,,,,,3,,1393508445,224.0381544,None,,,,1393508442,221.0262412,,,,2014_Feb_27_1337,60.01507189,semact_fmri_builder,1,ag
4,animal,trial_images_animals\r_toad.png,n,v,,75,toad,,,,,,,0,1,1,3,,,,,,,,,,,,,,,,,0,0,0,0,0,12,12,7,,,,,,,,,,,,,,,,1,,1393508449,228.0375646,3,1393508449,,0.668482969,1393508448,227.0240942,228.7063165,,,2014_Feb_27_1337,60.01507189,semact_fmri_builder,1,ag
4,object,trial_images_objects\r_garden clippers.png,n,n,,105,garden_clippers,,,,,,,0,1,1,3,,,,,,,,,,,,,,,,,0,0,0,0,0,13,13,10,,,,,,,,,,,,,,,,3,,1393508455,234.02995,None,,,,1393508452,231.022747,,,,2014_Feb_27_1337,60.01507189,semact_fmri_builder,1,ag
4,object,trial_images_objects\r_crosscut_saw.png,n,n,,100,crosscut_saw,,,,,,,0,1,1,3,,,,,,,,,,,,,,,,,0,0,0,0,0,14,14,5,,,,,,,,,,,,,,,,4,,1393508462,241.0309907,None,,,,1393508458,237.0205255,,,,2014_Feb_27_1337,60.01507189,semact_fmri_builder,1,ag
4,,,,,,,,,,,,,,0,1,1,3,,,,,,,,,,,,,,,,,0,0,0,0,,,,,,,,,,,,,,,,,,,,,,,,,,,,,,,,,2014_Feb_27_1337,60.01507189,semact_fmri_builder,1,ag
4,,,,,,,,,,,,,,0,1,1,3,,,,,,,,,,,,,,,,,,,,,,,,,,,,,,,,,,,,,,,,,,,,,,,,,,,,,2014_Feb_27_1337,60.01507189,semact_fmri_builder,1,ag
3,object,trial_images_objects\r_scoop.png,n,n,,110,,scoop,,,,,,0,2,2,2,,,,,,,,,,,,,0,0,0,0,,,,,,,,,0,0,0,14,,,,,,,,,,,,3,,1393508476,255.0429429,None,,,,,252.0501045,,1393508469,248.030253,2014_Feb_27_1337,60.01507189,semact_fmri_builder,1,ag
3,animal,trial_images_animals\r_moth.png,n,n,,66,,moth,,,,,,0,2,2,2,,,,,,,,,,,,,0,0,0,0,,,,,,,,,0,1,1,7,,,,,,,,,,,,4,,1393508483,262.0410035,None,,,,,258.029716,,,,2014_Feb_27_1337,60.01507189,semact_fmri_builder,1,ag
3,animal,trial_images_animals\r_dog_terrier.png,n,n,,68,,dog_terrier,,,,,,0,2,2,2,,,,,,,,,,,,,0,0,0,0,,,,,,,,,0,2,2,13,,,,,,,,,,,,1,,1393508487,266.0372371,None,,,,,265.0270767,,,,2014_Feb_27_1337,60.01507189,semact_fmri_builder,1,ag
3,animal,trial_images_animals\r_jerboas.png,f,v,,82,,jerboas,,,,,,0,2,2,2,,,,,,,,,,,,,0,0,0,0,,,,,,,,,0,3,3,8,,,,,,,,,,,,2,,1393508492,271.0380415,3,1393508494,,1.802124567,,269.0256499,272.8404984,,,2014_Feb_27_1337,60.01507189,semact_fmri_builder,1,ag
3,animal,trial_images_animals\r_penguin.png,f,n,,84,,penguin,,,,,,0,2,2,2,,,,,,,,,,,,,0,0,0,0,,,,,,,,,0,4,4,6,,,,,,,,,,,,3,,1393508498,277.0319452,3,1393508499,,0.73977515,,274.0239285,277.7719944,,,2014_Feb_27_1337,60.01507189,semact_fmri_builder,1,ag
3,object,trial_images_objects\r_screwdriver.png,n,n,,115,,screwdriver,,,,,,0,2,2,2,,,,,,,,,,,,,0,0,0,0,,,,,,,,,0,5,5,10,,,,,,,,,,,,3,,1393508504,283.0294703,None,,,,,280.02175,,,,2014_Feb_27_1337,60.01507189,semact_fmri_builder,1,ag
3,animal,trial_images_animals\r_beaver.png,n,n,,63,,beaver,,,,,,0,2,2,2,,,,,,,,,,,,,0,0,0,0,,,,,,,,,0,6,6,11,,,,,,,,,,,,3,,1393508510,289.036267,None,,,,,286.0195043,,,,2014_Feb_27_1337,60.01507189,semact_fmri_builder,1,ag
3,object,trial_images_objects\r_rake.png,n,n,,112,,rake,,,,,,0,2,2,2,,,,,,,,,,,,,0,0,0,0,,,,,,,,,0,7,7,4,,,,,,,,,,,,1,,1393508514,293.0247733,None,,,,,292.0173395,,,,2014_Feb_27_1337,60.01507189,semact_fmri_builder,1,ag
3,animal,trial_images_animals\r_polecat.png,n,n,,89,,polecat,,,,,,0,2,2,2,,,,,,,,,,,,,0,0,0,0,,,,,,,,,0,8,8,2,,,,,,,,,,,,3,,1393508520,299.0443235,None,,,,,296.0326122,,,,2014_Feb_27_1337,60.01507189,semact_fmri_builder,1,ag
3,animal,trial_images_animals\r_robin.png,n,n,,62,,robin,,,,,,0,2,2,2,,,,,,,,,,,,,0,0,0,0,,,,,,,,,0,9,9,12,,,,,,,,,,,,1,,1393508524,303.0420374,None,,,,,302.0304311,,,,2014_Feb_27_1337,60.01507189,semact_fmri_builder,1,ag
3,animal,trial_images_animals\r_bulldog_whiteenglish.png,n,n,,65,,bulldog_whiteenglish,,,,,,0,2,2,2,,,,,,,,,,,,,0,0,0,0,,,,,,,,,0,10,10,3,,,,,,,,,,,,2,,1393508529,308.039424,None,,,,,306.0289735,,,,2014_Feb_27_1337,60.01507189,semact_fmri_builder,1,ag
3,object,trial_images_objects\r_whisk.png,n,n,,116,,whisk,,,,,,0,2,2,2,,,,,,,,,,,,,0,0,0,0,,,,,,,,,0,11,11,1,,,,,,,,,,,,1,,1393508533,312.0376135,None,,,,,311.0271697,,,,2014_Feb_27_1337,60.01507189,semact_fmri_builder,1,ag
3,animal,trial_images_animals\r_badger2.png,n,n,,61,,badger2,,,,,,0,2,2,2,,,,,,,,,,,,,0,0,0,0,,,,,,,,,0,12,12,9,,,,,,,,,,,,3,,1393508539,318.0378381,None,,,,,315.0257549,,,,2014_Feb_27_1337,60.01507189,semact_fmri_builder,1,ag
3,object,trial_images_objects\r_potatomasher.png,n,v,,118,,potatomasher,,,,,,0,2,2,2,,,,,,,,,,,,,0,0,0,0,,,,,,,,,0,13,13,0,,,,,,,,,,,,1,,1393508543,322.0315603,None,,,,,321.0235904,,,,2014_Feb_27_1337,60.01507189,semact_fmri_builder,1,ag
3,object,trial_images_objects\r_handbell.png,n,v,,91,,handbell,,,,,,0,2,2,2,,,,,,,,,,,,,0,0,0,0,,,,,,,,,0,14,14,5,,,,,,,,,,,,4,,1393508550,329.034995,3,1393508551,,1.184517582,,325.0221609,330.2197912,,,2014_Feb_27_1337,60.01507189,semact_fmri_builder,1,ag
3,,,,,,,,,,,,,,0,2,2,2,,,,,,,,,,,,,0,0,0,0,,,,,,,,,,,,,,,,,,,,,,,,,,,,,,,,,,,,,2014_Feb_27_1337,60.01507189,semact_fmri_builder,1,ag
3,,,,,,,,,,,,,,0,2,2,2,,,,,,,,,,,,,,,,,,,,,,,,,,,,,,,,,,,,,,,,,,,,,,,,,,,,,2014_Feb_27_1337,60.01507189,semact_fmri_builder,1,ag
1,object,trial_images_objects\r_cutteknife.png,n,n,,102,,,cutterknife,,,,,0,3,3,0,0,0,0,0,,,,,,,,,,,,,,,,,,,,,,,,,None,0,0,0,8,,,,,,,3,340.0513523,1393508564,343.0633461,None,,,,,,,1393508557,336.0282868,2014_Feb_27_1337,60.01507189,semact_fmri_builder,1,ag
1,object,trial_images_objects\r_teapot.png,n,n,,109,,,teapot,,,,,0,3,3,0,0,0,0,0,,,,,,,,,,,,,,,,,,,,,,,,,None,0,1,1,12,,,,,,,3,346.0312567,1393508570,349.0415496,None,,,,,,,,,2014_Feb_27_1337,60.01507189,semact_fmri_builder,1,ag
1,animal,trial_images_animals\r_koala.png,f,n,,88,,,koala,,,,,0,3,3,0,0,0,0,0,,,,,,,,,,,,,,,,,,,,,,,,,None,0,2,2,1,,,,,,,2,352.028994,1393508575,354.0395909,None,,,,,,,,,2014_Feb_27_1337,60.01507189,semact_fmri_builder,1,ag
1,object,trial_images_objects\r_tin_opener.png,n,n,,95,,,tin_opener,,,,,0,3,3,0,0,0,0,0,,,,,,,,,,,,,,,,,,,,,,,,,None,0,3,3,4,,,,,,,4,357.0272252,1393508582,361.0366256,None,,,,,,,,,2014_Feb_27_1337,60.01507189,semact_fmri_builder,1,ag
1,object,trial_images_objects\r_computer_mouse.png,n,n,,99,,,computer_mouse,,,,,0,3,3,0,0,0,0,0,,,,,,,,,,,,,,,,,,,,,,,,,None,0,4,4,6,,,,,,,3,364.0246701,1393508588,367.0526122,None,,,,,,,,,2014_Feb_27_1337,60.01507189,semact_fmri_builder,1,ag
1,animal,trial_images_animals\r_highland_cow.png,n,n,,69,,,highland_cow,,,,,0,3,3,0,0,0,0,0,,,,,,,,,,,,,,,,,,,,,,,,,None,0,5,5,5,,,,,,,3,370.0391445,1393508594,373.0505681,3,1393508597,,2.735868369,,,375.7867631,,,2014_Feb_27_1337,60.01507189,semact_fmri_builder,1,ag
1,object,trial_images_objects\r_tweezers.png,n,n,,103,,,tweezers,,,,,0,3,3,0,0,0,0,0,,,,,,,,,,,,,,,,,,,,,,,,,None,0,6,6,13,,,,,,,2,376.0371242,1393508599,378.0461527,None,,,,,,,,,2014_Feb_27_1337,60.01507189,semact_fmri_builder,1,ag
