selectBlock,category,paths,semantic,action,image1,number,image3,image2,image4,trigger_loop.thisRepN,trigger_loop.thisTrialN,trigger_loop.thisN,trigger_loop.thisIndex,blockSelectLoop.thisRepN,blockSelectLoop.thisTrialN,blockSelectLoop.thisN,blockSelectLoop.thisIndex,b1loop.thisRepN,b1loop.thisTrialN,b1loop.thisN,b1loop.thisIndex,b1_trialLoop.thisRepN,b1_trialLoop.thisTrialN,b1_trialLoop.thisN,b1_trialLoop.thisIndex,b2loop.thisRepN,b2loop.thisTrialN,b2loop.thisN,b2loop.thisIndex,b3loop.thisRepN,b3loop.thisTrialN,b3loop.thisN,b3loop.thisIndex,b4loop.thisRepN,b4loop.thisTrialN,b4loop.thisN,b4loop.thisIndex,b3_trialLoop.thisRepN,b3_trialLoop.thisTrialN,b3_trialLoop.thisN,b3_trialLoop.thisIndex,b2_trialLoop.thisRepN,b2_trialLoop.thisTrialN,b2_trialLoop.thisN,b2_trialLoop.thisIndex,b4_trialLoop.thisRepN,b4_trialLoop.thisTrialN,b4_trialLoop.thisN,b4_trialLoop.thisIndex,GenInstrAbsTime,GenInstrTime,triggerClock,triggerAbsClock,SemInstr_startAbstime,SemInstr_starttime,FixDur,startFixtime,Img_startAbstime,Img_starttime,key_resp_2.keys,RespgetAbsTime,RespgetTime,key_resp_2.rt,startfixtime,ActInstr_startAbstime,ActInstr_starttime,Respgettime,startfixAbstime,date,frameRate,expName,session,participant
,,,,,,,,,,0,0,0,0,,,,,,,,,,,,,,,,,,,,,,,,,,,,,,,,,,,,,1393511235,5.415259415,224.8217819,1393511454,,,,,,,,,,,,,,,,2014_Feb_27_1427,60.02235694,semact_fmri_builder,1,ag
1,object,trial_images_objects\r_lipstick.png,n,n,lipstick,48,,,,,,,,0,0,0,0,0,0,0,0,0,0,0,8,,,,,,,,,,,,,,,,,,,,,,,,,,,,,1393511454,224.8452609,2,228.8723413,1393511460,230.8661097,None,,,,,,,,,2014_Feb_27_1427,60.02235694,semact_fmri_builder,1,ag
1,object,trial_images_objects\r_corkscrew.png,n,n,corkscrew,41,,,,,,,,0,0,0,0,0,0,0,0,0,1,1,9,,,,,,,,,,,,,,,,,,,,,,,,,,,,,,,4,233.8538976,1393511467,237.8630598,None,,,,,,,,,2014_Feb_27_1427,60.02235694,semact_fmri_builder,1,ag
1,object,trial_images_objects\r_knife_table.png,n,n,knife_table,42,,,,,,,,0,0,0,0,0,0,0,0,0,2,2,5,,,,,,,,,,,,,,,,,,,,,,,,,,,,,,,2,240.8512571,1393511472,242.8604872,None,,,,,,,,,2014_Feb_27_1427,60.02235694,semact_fmri_builder,1,ag
1,object,trial_images_objects\r_compass.png,n,n,compass,37,,,,,,,,0,0,0,0,0,0,0,0,0,3,3,6,,,,,,,,,,,,,,,,,,,,,,,,,,,,,,,1,245.8494653,1393511476,246.8565717,None,,,,,,,,,2014_Feb_27_1427,60.02235694,semact_fmri_builder,1,ag
1,animal,trial_images_animals\r_kangaroo_red.png,f,v,kangaroo_red,23,,,,,,,,0,0,0,0,0,0,0,0,0,4,4,13,,,,,,,,,,,,,,,,,,,,,,,,,,,,,,,3,249.8480612,1393511482,252.8633055,3,1393511483,253.5629742,0.699346022,,,,,,2014_Feb_27_1427,60.02235694,semact_fmri_builder,1,ag
1,object,trial_images_objects\r_staple_remover.png,n,n,staple_remover,54,,,,,,,,0,0,0,0,0,0,0,0,0,5,5,10,,,,,,,,,,,,,,,,,,,,,,,,,,,,,,,3,255.845992,1393511488,258.8553118,None,,,,,,,,,2014_Feb_27_1427,60.02235694,semact_fmri_builder,1,ag
1,object,trial_images_objects\r_iron.png,n,n,iron,39,,,,,,,,0,0,0,0,0,0,0,0,0,6,6,1,,,,,,,,,,,,,,,,,,,,,,,,,,,,,,,2,261.8436953,1393511493,263.8566933,None,,,,,,,,,2014_Feb_27_1427,60.02235694,semact_fmri_builder,1,ag
1,animal,trial_images_animals\r_swan_bewick.png,n,n,swan_bewick,30,,,,,,,,0,0,0,0,0,0,0,0,0,7,7,3,,,,,,,,,,,,,,,,,,,,,,,,,,,,,,,2,266.841867,1393511498,268.852913,None,,,,,,,,,2014_Feb_27_1427,60.02235694,semact_fmri_builder,1,ag
1,object,trial_images_objects\r_maracas.png,f,v,maracas,60,,,,,,,,0,0,0,0,0,0,0,0,0,8,8,12,,,,,,,,,,,,,,,,,,,,,,,,,,,,,,,1,271.8567458,1393511502,272.8667496,None,,,,,,,,,2014_Feb_27_1427,60.02235694,semact_fmri_builder,1,ag
1,object,trial_images_objects\r_axe.png,n,v,axe,34,,,,,,,,0,0,0,0,0,0,0,0,0,9,9,14,,,,,,,,,,,,,,,,,,,,,,,,,,,,,,,2,275.8553015,1393511507,277.8652162,None,,,,,,,,,2014_Feb_27_1427,60.02235694,semact_fmri_builder,1,ag
1,animal,trial_images_animals\r_squirrel_red.png,n,v,squirrel_red,22,,,,,,,,0,0,0,0,0,0,0,0,0,10,10,2,,,,,,,,,,,,,,,,,,,,,,,,,,,,,,,4,280.8535209,1393511514,284.8650079,None,,,,,,,,,2014_Feb_27_1427,60.02235694,semact_fmri_builder,1,ag
1,object,trial_images_objects\r_wok.png,f,n,wok,44,,,,,,,,0,0,0,0,0,0,0,0,0,11,11,7,,,,,,,,,,,,,,,,,,,,,,,,,,,,,,,2,287.8509435,1393511519,289.8609327,None,,,,,,,,,2014_Feb_27_1427,60.02235694,semact_fmri_builder,1,ag
1,animal,trial_images_animals\r_butterfly.png,n,n,butterfly,6,,,,,,,,0,0,0,0,0,0,0,0,0,12,12,11,,,,,,,,,,,,,,,,,,,,,,,,,,,,,,,4,292.8492076,1393511526,296.8626077,None,,,,,,,,,2014_Feb_27_1427,60.02235694,semact_fmri_builder,1,ag
1,animal,trial_images_animals\r_cat_wild.png,n,n,cat_wild,8,,,,,,,,0,0,0,0,0,0,0,0,0,13,13,4,,,,,,,,,,,,,,,,,,,,,,,,,,,,,,,4,299.8466645,1393511533,303.8554968,None,,,,,,,,,2014_Feb_27_1427,60.02235694,semact_fmri_builder,1,ag
1,object,trial_images_objects\r_coping_saw.png,n,n,coping_saw,40,,,,,,,,0,0,0,0,0,0,0,0,0,14,14,0,,,,,,,,,,,,,,,,,,,,,,,,,,,,,,,2,306.8441535,1393511538,308.8542393,None,,,,,,,,,2014_Feb_27_1427,60.02235694,semact_fmri_builder,1,ag
1,,,,,,,,,,,,,,0,0,0,0,0,0,0,0,,,,,,,,,,,,,,,,,,,,,,,,,,,,,,,,,,,,,,,,,,,,,,,,2014_Feb_27_1427,60.02235694,semact_fmri_builder,1,ag
1,,,,,,,,,,,,,,0,0,0,0,,,,,,,,,,,,,,,,,,,,,,,,,,,,,,,,,,,,,,,,,,,,,,,,,,,,2014_Feb_27_1427,60.02235694,semact_fmri_builder,1,ag
3,object,trial_images_objects\r_nail_file.png,n,n,,53,nail_file,,,,,,,0,1,1,2,,,,,,,,,,,,,0,0,0,0,,,,,0,0,0,14,,,,,,,,,,,,,1393511545,315.8815729,1,,1393511550,320.8851271,None,,,,319.8899078,,,,,2014_Feb_27_1427,60.02235694,semact_fmri_builder,1,ag
3,object,trial_images_objects\r_spanner.png,n,n,,55,spanner,,,,,,,0,1,1,2,,,,,,,,,,,,,0,0,0,0,,,,,0,1,1,5,,,,,,,,,,,,,,,4,,1393511557,327.8962812,None,,,,323.8715248,,,,,2014_Feb_27_1427,60.02235694,semact_fmri_builder,1,ag
3,object,trial_images_objects\r_pen.png,n,n,,51,pen1,,,,,,,0,1,1,2,,,,,,,,,,,,,0,0,0,0,,,,,0,2,2,1,,,,,,,,,,,,,,,2,,1393511562,332.8959169,None,,,,330.8856653,,,,,2014_Feb_27_1427,60.02235694,semact_fmri_builder,1,ag
3,object,trial_images_objects\r_paintbrush.png,n,v,,58,paintbrush,,,,,,,0,1,1,2,,,,,,,,,,,,,0,0,0,0,,,,,0,3,3,0,,,,,,,,,,,,,,,3,,1393511568,338.8937994,None,,,,335.8837803,,,,,2014_Feb_27_1427,60.02235694,semact_fmri_builder,1,ag
3,object,trial_images_objects\r_chi_instrument.png,f,n,,31,chi_instrument,,,,,,,0,1,1,2,,,,,,,,,,,,,0,0,0,0,,,,,0,4,4,7,,,,,,,,,,,,,,,4,,1393511575,345.8913177,3,1393511576,347.1626441,1.270949405,341.8816321,,,,,2014_Feb_27_1427,60.02235694,semact_fmri_builder,1,ag
3,animal,trial_images_animals\r_camel.png,f,n,,7,camel,,,,,,,0,1,1,2,,,,,,,,,,,,,0,0,0,0,,,,,0,5,5,6,,,,,,,,,,,,,,,4,,1393511582,352.889736,3,1393511583,353.5269113,0.636912089,348.8792137,,,,,2014_Feb_27_1427,60.02235694,semact_fmri_builder,1,ag
3,object,trial_images_objects\r_toothbrush.png,n,n,,38,toothbrush,,,,,,,0,1,1,2,,,,,,,,,,,,,0,0,0,0,,,,,0,6,6,8,,,,,,,,,,,,,,,3,,1393511588,358.8865467,None,,,,355.8766773,,,,,2014_Feb_27_1427,60.02235694,semact_fmri_builder,1,ag
3,animal,trial_images_animals\r_ostrich.png,f,n,,24,ostrich,,,,,,,0,1,1,2,,,,,,,,,,,,,0,0,0,0,,,,,0,7,7,11,,,,,,,,,,,,,,,2,,1393511593,363.8835548,3,1393511594,364.6895792,0.805746707,361.8744352,,,,,2014_Feb_27_1427,60.02235694,semact_fmri_builder,1,ag
3,animal,trial_images_animals\r_rabbit.png,n,v,,18,rabbit,,,,,,,0,1,1,2,,,,,,,,,,,,,0,0,0,0,,,,,0,8,8,10,,,,,,,,,,,,,,,3,,1393511599,369.8805116,None,,,,366.8726944,,,,,2014_Feb_27_1427,60.02235694,semact_fmri_builder,1,ag
3,object,trial_images_objects\r_kettle.png,n,n,,49,kettle,,,,,,,0,1,1,2,,,,,,,,,,,,,0,0,0,0,,,,,0,9,9,9,,,,,,,,,,,,,,,1,,1393511603,373.8962408,None,,,,372.8871519,,,,,2014_Feb_27_1427,60.02235694,semact_fmri_builder,1,ag
3,object,trial_images_objects\r_pitchfork.png,n,n,,52,pitchfork,,,,,,,0,1,1,2,,,,,,,,,,,,,0,0,0,0,,,,,0,10,10,13,,,,,,,,,,,,,,,2,,1393511608,378.893254,None,,,,376.8857181,,,,,2014_Feb_27_1427,60.02235694,semact_fmri_builder,1,ag
3,object,trial_images_objects\r_pizza_slicer.png,n,n,,57,pizza_slicer,,,,,,,0,1,1,2,,,,,,,,,,,,,0,0,0,0,,,,,0,11,11,3,,,,,,,,,,,,,,,3,,1393511614,384.8916627,None,,,,381.8839354,,,,,2014_Feb_27_1427,60.02235694,semact_fmri_builder,1,ag
3,object,trial_images_objects\r_pruning_shear.png,n,n,,45,pruning_shear,,,,,,,0,1,1,2,,,,,,,,,,,,,0,0,0,0,,,,,0,12,12,4,,,,,,,,,,,,,,,3,,1393511620,390.8897481,None,,,,387.8817474,,,,,2014_Feb_27_1427,60.02235694,semact_fmri_builder,1,ag
3,animal,trial_images_animals\r_dragonfly.png,n,n,,12,dragonfly,,,,,,,0,1,1,2,,,,,,,,,,,,,0,0,0,0,,,,,0,13,13,12,,,,,,,,,,,,,,,1,,1393511624,394.8923014,None,,,,393.8796013,,,,,2014_Feb_27_1427,60.02235694,semact_fmri_builder,1,ag
3,object,trial_images_objects\r_colander.png,n,n,,36,colander,,,,,,,0,1,1,2,,,,,,,,,,,,,0,0,0,0,,,,,0,14,14,2,,,,,,,,,,,,,,,4,,1393511631,401.8897037,None,,,,397.8781931,,,,,2014_Feb_27_1427,60.02235694,semact_fmri_builder,1,ag
3,,,,,,,,,,,,,,0,1,1,2,,,,,,,,,,,,,0,0,0,0,,,,,,,,,,,,,,,,,,,,,,,,,,,,,,,,,,,,2014_Feb_27_1427,60.02235694,semact_fmri_builder,1,ag
3,,,,,,,,,,,,,,0,1,1,2,,,,,,,,,,,,,,,,,,,,,,,,,,,,,,,,,,,,,,,,,,,,,,,,,,,,2014_Feb_27_1427,60.02235694,semact_fmri_builder,1,ag
2,animal,trial_images_animals\r_blackbird.png,n,n,,4,,blackbird,,,,,,0,2,2,1,,,,,,,,,0,0,0,0,,,,,,,,,,,,,0,0,0,1,,,,,,,,,,,1,413.9066182,1393511644,414.9003392,None,,,,,1393511638,408.8866297,,,2014_Feb_27_1427,60.02235694,semact_fmri_builder,1,ag
2,object,trial_images_objects\r_rolling_pin.png,n,n,,56,,rolling_pin,,,,,,0,2,2,1,,,,,,,,,0,0,0,0,,,,,,,,,,,,,0,1,1,3,,,,,,,,,,,4,417.8875805,1393511651,421.9000286,None,,,,,,,,,2014_Feb_27_1427,60.02235694,semact_fmri_builder,1,ag
2,object,trial_images_objects\r_pliers.png,n,n,,59,,pliers,,,,,,0,2,2,1,,,,,,,,,0,0,0,0,,,,,,,,,,,,,0,2,2,6,,,,,,,,,,,3,424.8849572,1393511657,427.8966184,None,,,,,,,,,2014_Feb_27_1427,60.02235694,semact_fmri_builder,1,ag
2,animal,trial_images_animals\r_harvest_mouse.png,n,n,,19,,harvest_mouse,,,,,,0,2,2,1,,,,,,,,,0,0,0,0,,,,,,,,,,,,,0,3,3,12,,,,,,,,,,,2,430.882815,1393511662,432.8928112,None,,,,,,,,,2014_Feb_27_1427,60.02235694,semact_fmri_builder,1,ag
2,animal,trial_images_animals\r_horse.png,n,n,,21,,horse,,,,,,0,2,2,1,,,,,,,,,0,0,0,0,,,,,,,,,,,,,0,4,4,4,,,,,,,,,,,1,435.8810184,1393511666,436.8936654,None,,,,,,,,,2014_Feb_27_1427,60.02235694,semact_fmri_builder,1,ag
2,object,trial_images_objects\r_cleaningbrush.png,n,n,,46,,cleaningbrush,,,,,,0,2,2,1,,,,,,,,,0,0,0,0,,,,,,,,,,,,,0,5,5,11,,,,,,,,,,,2,439.8795804,1393511671,441.9101362,None,,,,,,,,,2014_Feb_27_1427,60.02235694,semact_fmri_builder,1,ag
2,animal,trial_images_animals\r_frog.png,n,v,,15,,frog,,,,,,0,2,2,1,,,,,,,,,0,0,0,0,,,,,,,,,,,,,0,6,6,5,,,,,,,,,,,4,444.8944605,1393511678,448.907064,3,1393511679,,0.685020456,,,,449.5924002,,2014_Feb_27_1427,60.02235694,semact_fmri_builder,1,ag
2,object,trial_images_objects\r_spatula.png,n,n,,32,,spatula,,,,,,0,2,2,1,,,,,,,,,0,0,0,0,,,,,,,,,,,,,0,7,7,14,,,,,,,,,,,1,451.8920831,1393511682,452.8997527,None,,,,,,,,,2014_Feb_27_1427,60.02235694,semact_fmri_builder,1,ag
2,animal,trial_images_animals\r_cricket_green.png,n,v,,10,,cricket_green,,,,,,0,2,2,1,,,,,,,,,0,0,0,0,,,,,,,,,,,,,0,8,8,13,,,,,,,,,,,1,455.8904807,1393511686,456.9027712,3,1393511687,,0.786376103,,,,457.6894081,,2014_Feb_27_1427,60.02235694,semact_fmri_builder,1,ag
2,animal,trial_images_animals\r_cow_dairy.png,n,n,,9,,cow_dairy,,,,,,0,2,2,1,,,,,,,,,0,0,0,0,,,,,,,,,,,,,0,9,9,2,,,,,,,,,,,4,459.8891127,1393511693,463.9028826,None,,,,,,,,,2014_Feb_27_1427,60.02235694,semact_fmri_builder,1,ag
2,object,trial_images_objects\r_pepper_mill.png,n,n,,35,,peppemill,,,,,,0,2,2,1,,,,,,,,,0,0,0,0,,,,,,,,,,,,,0,10,10,0,,,,,,,,,,,1,466.8865171,1393511697,467.8934916,None,,,,,,,,,2014_Feb_27_1427,60.02235694,semact_fmri_builder,1,ag
2,animal,trial_images_animals\r_goat.png,n,n,,16,,goat1,,,,,,0,2,2,1,,,,,,,,,0,0,0,0,,,,,,,,,,,,,0,11,11,9,,,,,,,,,,,2,470.8850553,1393511702,472.8964955,None,,,,,,,,,2014_Feb_27_1427,60.02235694,semact_fmri_builder,1,ag
2,object,trial_images_objects\r_broom.png,n,n,,33,,broom,,,,,,0,2,2,1,,,,,,,,,0,0,0,0,,,,,,,,,,,,,0,12,12,10,,,,,,,,,,,4,475.8832723,1393511709,479.8884242,None,,,,,,,,,2014_Feb_27_1427,60.02235694,semact_fmri_builder,1,ag
2,animal,trial_images_animals\r_sheep.png,n,n,,27,,sheep1,,,,,,0,2,2,1,,,,,,,,,0,0,0,0,,,,,,,,,,,,,0,13,13,7,,,,,,,,,,,3,482.8807413,1393511715,485.8943328,None,,,,,,,,,2014_Feb_27_1427,60.02235694,semact_fmri_builder,1,ag
2,object,trial_images_objects\r_rasp.png,n,n,,47,,rasp,,,,,,0,2,2,1,,,,,,,,,0,0,0,0,,,,,,,,,,,,,0,14,14,8,,,,,,,,,,,1,488.8952468,1393511719,489.9058237,None,,,,,,,,,2014_Feb_27_1427,60.02235694,semact_fmri_builder,1,ag
2,,,,,,,,,,,,,,0,2,2,1,,,,,,,,,0,0,0,0,,,,,,,,,,,,,,,,,,,,,,,,,,,,,,,,,,,,,,,,2014_Feb_27_1427,60.02235694,semact_fmri_builder,1,ag
2,,,,,,,,,,,,,,0,2,2,1,,,,,,,,,,,,,,,,,,,,,,,,,,,,,,,,,,,,,,,,,,,,,,,,,,,,2014_Feb_27_1427,60.02235694,semact_fmri_builder,1,ag
4,animal,trial_images_animals\r_stoat.png,n,n,,29,,,stoat,,,,,0,3,3,3,,,,,,,,,,,,,,,,,0,0,0,0,,,,,,,,,0,0,0,2,,,,,,,3,,1393511734,504.9199911,None,,,,501.923635,1393511726,496.9166793,,1393511731,2014_Feb_27_1427,60.02235694,semact_fmri_builder,1,ag
4,animal,trial_images_animals\r_seagull_herring.png,n,n,,17,,,seagull_herring,,,,,0,3,3,3,,,,,,,,,,,,,,,,,0,0,0,0,,,,,,,,,0,1,1,8,,,,,,,4,,1393511741,511.9170095,None,,,,507.9052886,,,,1393511737,2014_Feb_27_1427,60.02235694,semact_fmri_builder,1,ag
4,object,trial_images_objects\r_pasta_spoon.png,n,n,,50,,,pasta_spoon,,,,,0,3,3,3,,,,,,,,,,,,,,,,,0,0,0,0,,,,,,,,,0,2,2,3,,,,,,,2,,1393511746,516.9295397,None,,,,514.9026788,,,,1393511744,2014_Feb_27_1427,60.02235694,semact_fmri_builder,1,ag
4,animal,trial_images_animals\r_bulldog_english.png,n,n,,5,,,bulldog_english,,,,,0,3,3,3,,,,,,,,,,,,,,,,,0,0,0,0,,,,,,,,,0,3,3,9,,,,,,,3,,1393511752,522.9312542,None,,,,519.9175453,,,,1393511749,2014_Feb_27_1427,60.02235694,semact_fmri_builder,1,ag
4,animal,trial_images_animals\r_bug_common.png,n,n,,3,,,bug_common,,,,,0,3,3,3,,,,,,,,,,,,,,,,,0,0,0,0,,,,,,,,,0,4,4,4,,,,,,,4,,1393511759,529.9248252,3,1393511760,530.6632209,0.738085119,525.9154351,,,,1393511755,2014_Feb_27_1427,60.02235694,semact_fmri_builder,1,ag
4,animal,trial_images_animals\r_deer_roe.png,n,n,,11,,,deer_roe,,,,,0,3,3,3,,,,,,,,,,,,,,,,,0,0,0,0,,,,,,,,,0,5,5,10,,,,,,,2,,1393511764,534.9221137,None,,,,532.9130403,,,,1393511762,2014_Feb_27_1427,60.02235694,semact_fmri_builder,1,ag
4,animal,trial_images_animals\r_owl.png,n,n,,25,,,owl2,,,,,0,3,3,3,,,,,,,,,,,,,,,,,0,0,0,0,,,,,,,,,0,6,6,12,,,,,,,1,,1393511768,538.9221575,None,,,,537.9110749,,,,1393511767,2014_Feb_27_1427,60.02235694,semact_fmri_builder,1,ag
4,animal,trial_images_animals\r_seal_grey.png,n,n,,26,,,seal_grey,,,,,0,3,3,3,,,,,,,,,,,,,,,,,0,0,0,0,,,,,,,,,0,7,7,13,,,,,,,3,,1393511774,544.9231949,None,,,,541.9096125,,,,1393511771,2014_Feb_27_1427,60.02235694,semact_fmri_builder,1,ag
4,animal,trial_images_animals\r_bat.png,n,n,,2,,,bat,,,,,0,3,3,3,,,,,,,,,,,,,,,,,0,0,0,0,,,,,,,,,0,8,8,11,,,,,,,3,,1393511780,550.9198502,None,,,,547.9074501,,,,1393511777,2014_Feb_27_1427,60.02235694,semact_fmri_builder,1,ag
4,animal,trial_images_animals\r_duck_white.png,n,n,,13,,,duck_white,,,,,0,3,3,3,,,,,,,,,,,,,,,,,0,0,0,0,,,,,,,,,0,9,9,0,,,,,,,2,,1393511785,555.9160841,None,,,,553.9053538,,,,1393511783,2014_Feb_27_1427,60.02235694,semact_fmri_builder,1,ag
4,animal,trial_images_animals\r_fox_red.png,n,n,,14,,,fox_red,,,,,0,3,3,3,,,,,,,,,,,,,,,,,0,0,0,0,,,,,,,,,0,10,10,1,,,,,,,4,,1393511792,562.9296239,None,,,,558.9035161,,,,1393511788,2014_Feb_27_1427,60.02235694,semact_fmri_builder,1,ag
4,animal,trial_images_animals\r_springbok.png,f,n,,28,,,springbok,,,,,0,3,3,3,,,,,,,,,,,,,,,,,0,0,0,0,,,,,,,,,0,11,11,6,,,,,,,1,,1393511796,566.9282176,None,,,,565.9176419,,,,1393511795,2014_Feb_27_1427,60.02235694,semact_fmri_builder,1,ag
4,animal,trial_images_animals\r_badger.png,n,n,,1,,,badger1,,,,,0,3,3,3,,,,,,,,,,,,,,,,,0,0,0,0,,,,,,,,,0,12,12,7,,,,,,,1,,1393511800,570.9298772,None,,,,569.9162163,,,,1393511799,2014_Feb_27_1427,60.02235694,semact_fmri_builder,1,ag
4,animal,trial_images_animals\r_mole.png,n,n,,20,,,mole,,,,,0,3,3,3,,,,,,,,,,,,,,,,,0,0,0,0,,,,,,,,,0,13,13,14,,,,,,,1,,1393511804,574.9282541,None,,,,573.9147834,,,,1393511803,2014_Feb_27_1427,60.02235694,semact_fmri_builder,1,ag
4,object,trial_images_objects\r_eyelash_curlers.png,n,n,,43,,,eyelash_curlers,,,,,0,3,3,3,,,,,,,,,,,,,,,,,0,0,0,0,,,,,,,,,0,14,14,5,,,,,,,4,,1393511811,581.9204696,None,,,,577.9133508,,,,1393511807,2014_Feb_27_1427,60.02235694,semact_fmri_builder,1,ag
4,,,,,,,,,,,,,,0,3,3,3,,,,,,,,,,,,,,,,,0,0,0,0,,,,,,,,,,,,,,,,,,,,,,,,,,,,,,,,2014_Feb_27_1427,60.02235694,semact_fmri_builder,1,ag
4,,,,,,,,,,,,,,0,3,3,3,,,,,,,,,,,,,,,,,,,,,,,,,,,,,,,,,,,,,,,,,,,,,,,,,,,,2014_Feb_27_1427,60.02235694,semact_fmri_builder,1,ag
