selectBlock,category,paths,semantic,action,image2,number,image1,image3,image4,trigger_loop.thisRepN,trigger_loop.thisTrialN,trigger_loop.thisN,trigger_loop.thisIndex,blockSelectLoop.thisRepN,blockSelectLoop.thisTrialN,blockSelectLoop.thisN,blockSelectLoop.thisIndex,b1loop.thisRepN,b1loop.thisTrialN,b1loop.thisN,b1loop.thisIndex,b2loop.thisRepN,b2loop.thisTrialN,b2loop.thisN,b2loop.thisIndex,b2_trialLoop.thisRepN,b2_trialLoop.thisTrialN,b2_trialLoop.thisN,b2_trialLoop.thisIndex,b3loop.thisRepN,b3loop.thisTrialN,b3loop.thisN,b3loop.thisIndex,b4loop.thisRepN,b4loop.thisTrialN,b4loop.thisN,b4loop.thisIndex,b1_trialLoop.thisRepN,b1_trialLoop.thisTrialN,b1_trialLoop.thisN,b1_trialLoop.thisIndex,b3_trialLoop.thisRepN,b3_trialLoop.thisTrialN,b3_trialLoop.thisN,b3_trialLoop.thisIndex,b4_trialLoop.thisRepN,b4_trialLoop.thisTrialN,b4_trialLoop.thisN,b4_trialLoop.thisIndex,GenInstrAbsTime,GenInstrTime,triggerClock,triggerAbsClock,ActInstr_startAbstime,ActInstr_starttime,startFixtime,startFixAbstime,Img_startAbstime,Img_starttime,RespgetAbsTime,Respgettime,key_resp_2.keys,key_resp_2.rt,JitDur,startJittime,SemInstr_startAbstime,SemInstr_starttime,startJitAbstime,date,frameRate,expName,session,participant
,,,,,,,,,,0,0,0,0,,,,,,,,,,,,,,,,,,,,,,,,,,,,,,,,,,,,,1395085232,6.358164341,38.16219535,1395085264,,,,,,,,,,,,,,,,2014_Mar_17_1940,60.02188564,semact_fmri_builder,2,lc
2,animal,trial_images_animals\r_goose_canada.png,n,n,goose_canada,77,,,,,,,,0,0,0,1,,,,,0,0,0,0,0,0,0,14,,,,,,,,,,,,,,,,,,,,,,,,,1395085264,38.18853065,42.21298998,1395085268,1395085269,42.70924621,1395085270,43.67771165,3,0.967996672,1,45.19405017,,,,2014_Mar_17_1940,60.02188564,semact_fmri_builder,2,lc
2,animal,trial_images_animals\r_otter.png,n,n,otter,86,,,,,,,,0,0,0,1,,,,,0,0,0,0,0,1,1,6,,,,,,,,,,,,,,,,,,,,,,,,,,,46.19362879,1395085272,1395085273,46.70710131,,,None,,2,49.1923698,,,,2014_Mar_17_1940,60.02188564,semact_fmri_builder,2,lc
2,animal,trial_images_animals\r_highland_cow.png,n,n,highland_cow,69,,,,,,,,0,0,0,1,,,,,0,0,0,0,0,2,2,0,,,,,,,,,,,,,,,,,,,,,,,,,,,51.1917963,1395085277,1395085278,51.70506839,,,None,,1,54.19054002,,,,2014_Mar_17_1940,60.02188564,semact_fmri_builder,2,lc
2,object,trial_images_objects\r_nailclipper.png,n,n,nailclipper,113,,,,,,,,0,0,0,1,,,,,0,0,0,0,0,3,3,13,,,,,,,,,,,,,,,,,,,,,,,,,,,55.19031968,1395085281,1395085282,55.69840457,1395085283,56.7895941,3,1.090908817,2,58.18914701,,,,2014_Mar_17_1940,60.02188564,semact_fmri_builder,2,lc
2,animal,trial_images_animals\r_beaver.png,n,n,beaver,63,,,,,,,,0,0,0,1,,,,,0,0,0,0,0,4,4,8,,,,,,,,,,,,,,,,,,,,,,,,,,,60.18851857,1395085286,1395085287,60.70271883,,,None,,2,63.18728524,,,,2014_Mar_17_1940,60.02188564,semact_fmri_builder,2,lc
2,animal,trial_images_animals\r_polecat.png,n,n,polecat,89,,,,,,,,0,0,0,1,,,,,0,0,0,0,0,5,5,11,,,,,,,,,,,,,,,,,,,,,,,,,,,65.1867226,1395085291,1395085292,65.69826784,,,None,,1,68.18546331,,,,2014_Mar_17_1940,60.02188564,semact_fmri_builder,2,lc
2,object,trial_images_objects\r_computer_mouse.png,n,n,computer_mouse,99,,,,,,,,0,0,0,1,,,,,0,0,0,0,0,6,6,1,,,,,,,,,,,,,,,,,,,,,,,,,,,69.18527858,1395085295,1395085296,69.69461975,,,None,,4,72.18400449,,,,2014_Mar_17_1940,60.02188564,semact_fmri_builder,2,lc
2,object,trial_images_objects\r_pincer.png,n,n,pincer,119,,,,,,,,0,0,0,1,,,,,0,0,0,0,0,7,7,4,,,,,,,,,,,,,,,,,,,,,,,,,,,76.18273403,1395085302,1395085303,76.69180656,,,None,,2,79.18145361,,,,2014_Mar_17_1940,60.02188564,semact_fmri_builder,2,lc
2,object,trial_images_objects\r_tin_opener.png,n,n,tin_opener,95,,,,,,,,0,0,0,1,,,,,0,0,0,0,0,8,8,5,,,,,,,,,,,,,,,,,,,,,,,,,,,81.19757903,1395085307,1395085308,81.7087693,,,None,,1,84.1963143,,,,2014_Mar_17_1940,60.02188564,semact_fmri_builder,2,lc
2,object,trial_images_objects\r_handbell.png,n,v,handbell,91,,,,,,,,0,0,0,1,,,,,0,0,0,0,0,9,9,12,,,,,,,,,,,,,,,,,,,,,,,,,,,85.19613108,1395085311,1395085312,85.70744299,1395085313,86.64540798,3,0.937700575,2,88.19493035,,,,2014_Mar_17_1940,60.02188564,semact_fmri_builder,2,lc
2,animal,trial_images_animals\r_dog_terrier.png,n,n,dog_terrier,68,,,,,,,,0,0,0,1,,,,,0,0,0,0,0,10,10,9,,,,,,,,,,,,,,,,,,,,,,,,,,,90.19431851,1395085316,1395085317,90.70450032,,,None,,1,93.19304473,,,,2014_Mar_17_1940,60.02188564,semact_fmri_builder,2,lc
2,object,trial_images_objects\r_frypan.png,n,n,frypan,104,,,,,,,,0,0,0,1,,,,,0,0,0,0,0,11,11,10,,,,,,,,,,,,,,,,,,,,,,,,,,,94.1928434,1395085320,1395085321,94.70210911,,,None,,4,97.19159316,,,,2014_Mar_17_1940,60.02188564,semact_fmri_builder,2,lc
2,object,trial_images_objects\r_shisha.png,f,n,shisha,120,,,,,,,,0,0,0,1,,,,,0,0,0,0,0,12,12,3,,,,,,,,,,,,,,,,,,,,,,,,,,,101.1903245,1395085327,1395085328,101.7007197,,,None,,1,104.189058,,,,2014_Mar_17_1940,60.02188564,semact_fmri_builder,2,lc
2,object,trial_images_objects\r_screwdriver.png,n,n,screwdriver,115,,,,,,,,0,0,0,1,,,,,0,0,0,0,0,13,13,2,,,,,,,,,,,,,,,,,,,,,,,,,,,105.1888666,1395085331,1395085332,105.6979476,,,None,,2,108.1876046,,,,2014_Mar_17_1940,60.02188564,semact_fmri_builder,2,lc
2,object,trial_images_objects\r_chopsticks.png,f,n,chopsticks,96,,,,,,,,0,0,0,1,,,,,0,0,0,0,0,14,14,7,,,,,,,,,,,,,,,,,,,,,,,,,,,110.1870589,1395085336,1395085337,110.696058,,,None,,1,113.1857712,,,,2014_Mar_17_1940,60.02188564,semact_fmri_builder,2,lc
2,,,,,,,,,,,,,,0,0,0,1,,,,,0,0,0,0,,,,,,,,,,,,,,,,,,,,,,,,,,,,,,,,,,,,,,,,,,,,2014_Mar_17_1940,60.02188564,semact_fmri_builder,2,lc
2,,,,,,,,,,,,,,0,0,0,1,,,,,,,,,,,,,,,,,,,,,,,,,,,,,,,,,,,,,,,,,,,,,,,,,,,,2014_Mar_17_1940,60.02188564,semact_fmri_builder,2,lc
1,object,trial_images_objects\r_hairbrush.png,n,n,,106,hairbrush,,,,,,,0,1,1,0,0,0,0,0,,,,,,,,,,,,,,,,,0,0,0,7,,,,,,,,,,,,,,,122.2172049,1395085348,1395085349,122.7112559,,,None,,1,125.1982298,1395085344,118.1973596,,2014_Mar_17_1940,60.02188564,semact_fmri_builder,2,lc
1,animal,trial_images_animals\r_owl_whitebarn.png,n,n,,85,owl_whitebarn,,,,,,,0,1,1,0,0,0,0,0,,,,,,,,,,,,,,,,,0,1,1,5,,,,,,,,,,,,,,,126.1979062,1395085352,1395085353,126.7102227,,,None,,2,129.1966385,,,,2014_Mar_17_1940,60.02188564,semact_fmri_builder,2,lc
1,animal,trial_images_animals\r_hedgehog.png,n,n,,80,hedgehog,,,,,,,0,1,1,0,0,0,0,0,,,,,,,,,,,,,,,,,0,2,2,9,,,,,,,,,,,,,,,131.1960761,1395085357,1395085358,131.7087101,,,None,,2,134.1948184,,,,2014_Mar_17_1940,60.02188564,semact_fmri_builder,2,lc
1,object,trial_images_objects\r_scissors.png,n,n,,114,scissors,,,,,,,0,1,1,0,0,0,0,0,,,,,,,,,,,,,,,,,0,3,3,6,,,,,,,,,,,,,,,136.1942892,1395085362,1395085363,136.702276,,,None,,1,139.2096718,,,,2014_Mar_17_1940,60.02188564,semact_fmri_builder,2,lc
1,object,trial_images_objects\r_african_sickle.png,f,n,,94,african_sickle,,,,,,,0,1,1,0,0,0,0,0,,,,,,,,,,,,,,,,,0,4,4,2,,,,,,,,,,,,,,,140.209466,1395085366,1395085367,140.7173592,1395085368,141.5754988,3,0.857823257,1,143.2083355,,,,2014_Mar_17_1940,60.02188564,semact_fmri_builder,2,lc
1,object,trial_images_objects\r_stapler.png,n,n,,97,stapler,,,,,,,0,1,1,0,0,0,0,0,,,,,,,,,,,,,,,,,0,5,5,12,,,,,,,,,,,,,,,144.2080156,1395085370,1395085371,144.7180767,,,None,,1,147.2067844,,,,2014_Mar_17_1940,60.02188564,semact_fmri_builder,2,lc
1,animal,trial_images_animals\r_grasshopper_common.png,n,v,,70,grasshopper_common,,,,,,,0,1,1,0,0,0,0,0,,,,,,,,,,,,,,,,,0,6,6,4,,,,,,,,,,,,,,,148.2065667,1395085374,1395085375,148.7154518,,,None,,4,151.2053204,,,,2014_Mar_17_1940,60.02188564,semact_fmri_builder,2,lc
1,object,trial_images_objects\r_squeezer.png,n,n,,101,squeezer,,,,,,,0,1,1,0,0,0,0,0,,,,,,,,,,,,,,,,,0,7,7,11,,,,,,,,,,,,,,,155.2040472,1395085381,1395085382,155.7147573,,,None,,1,158.202788,,,,2014_Mar_17_1940,60.02188564,semact_fmri_builder,2,lc
1,animal,trial_images_animals\r_fox2.png,n,n,,74,fox2,,,,,,,0,1,1,0,0,0,0,0,,,,,,,,,,,,,,,,,0,8,8,10,,,,,,,,,,,,,,,159.2025794,1395085385,1395085386,159.7136405,,,None,,1,162.2012875,,,,2014_Mar_17_1940,60.02188564,semact_fmri_builder,2,lc
1,object,trial_images_objects\r_potatomasher.png,n,v,,118,potatomasher,,,,,,,0,1,1,0,0,0,0,0,,,,,,,,,,,,,,,,,0,9,9,8,,,,,,,,,,,,,,,163.2011215,1395085389,1395085390,163.7085239,,,None,,4,166.1998688,,,,2014_Mar_17_1940,60.02188564,semact_fmri_builder,2,lc
1,animal,trial_images_animals\r_penguin.png,f,n,,84,penguin,,,,,,,0,1,1,0,0,0,0,0,,,,,,,,,,,,,,,,,0,10,10,14,,,,,,,,,,,,,,,170.1986077,1395085396,1395085397,170.707746,1395085398,171.581293,3,0.87327315,2,173.1974031,,,,2014_Mar_17_1940,60.02188564,semact_fmri_builder,2,lc
1,animal,trial_images_animals\r_pony.png,n,n,,81,pony,,,,,,,0,1,1,0,0,0,0,0,,,,,,,,,,,,,,,,,0,11,11,3,,,,,,,,,,,,,,,175.1968054,1395085401,1395085402,175.7090708,,,None,,2,178.1955078,,,,2014_Mar_17_1940,60.02188564,semact_fmri_builder,2,lc
1,object,trial_images_objects\r_cakeslicer.png,n,n,,92,cakeslicer,,,,,,,0,1,1,0,0,0,0,0,,,,,,,,,,,,,,,,,0,12,12,1,,,,,,,,,,,,,,,180.1949874,1395085406,1395085407,180.7029274,,,None,,4,183.1937027,,,,2014_Mar_17_1940,60.02188564,semact_fmri_builder,2,lc
1,object,trial_images_objects\r_teapot.png,n,n,,109,teapot,,,,,,,0,1,1,0,0,0,0,0,,,,,,,,,,,,,,,,,0,13,13,13,,,,,,,,,,,,,,,187.2091019,1395085413,1395085414,187.7204694,,,None,,1,190.2078233,,,,2014_Mar_17_1940,60.02188564,semact_fmri_builder,2,lc
1,object,trial_images_objects\r_rake.png,n,n,,112,rake,,,,,,,0,1,1,0,0,0,0,0,,,,,,,,,,,,,,,,,0,14,14,0,,,,,,,,,,,,,,,191.2076259,1395085417,1395085418,191.7161427,,,None,,4,194.2063859,,,,2014_Mar_17_1940,60.02188564,semact_fmri_builder,2,lc
1,,,,,,,,,,,,,,0,1,1,0,0,0,0,0,,,,,,,,,,,,,,,,,,,,,,,,,,,,,,,,,,,,,,,,,,,,,,,,2014_Mar_17_1940,60.02188564,semact_fmri_builder,2,lc
1,,,,,,,,,,,,,,0,1,1,0,,,,,,,,,,,,,,,,,,,,,,,,,,,,,,,,,,,,,,,,,,,,,,,,,,,,2014_Mar_17_1940,60.02188564,semact_fmri_builder,2,lc
3,animal,trial_images_animals\r_jerboas.png,f,v,,82,,jerboas,,,,,,0,2,2,2,,,,,,,,,,,,,0,0,0,0,,,,,,,,,0,0,0,13,,,,,,,,,,,206.2370346,1395085432,1395085433,206.7313792,1395085434,207.5348992,3,0.803184335,2,209.2179656,1395085428,202.2290357,1395085435,2014_Mar_17_1940,60.02188564,semact_fmri_builder,2,lc
3,object,trial_images_objects\r_crosscut_saw.png,n,n,,100,,crosscut_saw,,,,,,0,2,2,2,,,,,,,,,,,,,0,0,0,0,,,,,,,,,0,1,1,4,,,,,,,,,,,211.2171578,1395085437,1395085438,211.7419498,,,None,,2,214.2325604,,,1395085440,2014_Mar_17_1940,60.02188564,semact_fmri_builder,2,lc
3,object,trial_images_objects\r_mop.png,n,n,,93,,mop,,,,,,0,2,2,2,,,,,,,,,,,,,0,0,0,0,,,,,,,,,0,2,2,0,,,,,,,,,,,216.2321022,1395085442,1395085443,216.7413048,,,None,,1,219.2307245,,,1395085445,2014_Mar_17_1940,60.02188564,semact_fmri_builder,2,lc
3,animal,trial_images_animals\r_moth.png,n,n,,66,,moth,,,,,,0,2,2,2,,,,,,,,,,,,,0,0,0,0,,,,,,,,,0,3,3,5,,,,,,,,,,,220.2305401,1395085446,1395085447,220.741101,,,None,,1,223.2292881,,,1395085449,2014_Mar_17_1940,60.02188564,semact_fmri_builder,2,lc
3,object,trial_images_objects\r_paint_roller.png,n,v,,117,,paint_roller,,,,,,0,2,2,2,,,,,,,,,,,,,0,0,0,0,,,,,,,,,0,4,4,7,,,,,,,,,,,224.2291063,1395085450,1395085451,224.7386084,,,None,,2,227.2278398,,,1395085453,2014_Mar_17_1940,60.02188564,semact_fmri_builder,2,lc
3,object,trial_images_objects\r_cutteknife.png,n,n,,102,,cutterknife,,,,,,0,2,2,2,,,,,,,,,,,,,0,0,0,0,,,,,,,,,0,5,5,14,,,,,,,,,,,229.2272911,1395085455,1395085456,229.7359473,,,None,,2,232.2260236,,,1395085458,2014_Mar_17_1940,60.02188564,semact_fmri_builder,2,lc
3,animal,trial_images_animals\r_toad.png,n,v,,75,,toad,,,,,,0,2,2,2,,,,,,,,,,,,,0,0,0,0,,,,,,,,,0,6,6,8,,,,,,,,,,,234.2254875,1395085460,1395085461,234.737286,,,None,,1,237.2242171,,,1395085463,2014_Mar_17_1940,60.02188564,semact_fmri_builder,2,lc
3,animal,trial_images_animals\r_wallaby.png,f,v,,83,,wallaby,,,,,,0,2,2,2,,,,,,,,,,,,,0,0,0,0,,,,,,,,,0,7,7,10,,,,,,,,,,,238.2240016,1395085464,1395085465,238.7337747,1395085466,239.5732392,3,0.839206114,4,241.2228349,,,1395085467,2014_Mar_17_1940,60.02188564,semact_fmri_builder,2,lc
3,animal,trial_images_animals\r_crow.png,n,n,,64,,crow,,,,,,0,2,2,2,,,,,,,,,,,,,0,0,0,0,,,,,,,,,0,8,8,12,,,,,,,,,,,245.2214869,1395085471,1395085472,245.7331468,,,None,,1,248.2202016,,,1395085474,2014_Mar_17_1940,60.02188564,semact_fmri_builder,2,lc
3,object,trial_images_objects\r_key.png,n,n,,108,,key,,,,,,0,2,2,2,,,,,,,,,,,,,0,0,0,0,,,,,,,,,0,9,9,6,,,,,,,,,,,249.2200127,1395085475,1395085476,249.7282382,,,None,,1,252.2187712,,,1395085478,2014_Mar_17_1940,60.02188564,semact_fmri_builder,2,lc
3,animal,trial_images_animals\r_goat2.png,n,n,,76,,goat2,,,,,,0,2,2,2,,,,,,,,,,,,,0,0,0,0,,,,,,,,,0,10,10,9,,,,,,,,,,,253.2185795,1395085479,1395085480,253.7288646,,,None,,2,256.2173175,,,1395085482,2014_Mar_17_1940,60.02188564,semact_fmri_builder,2,lc
3,animal,trial_images_animals\r_hare.png,n,v,,78,,hare,,,,,,0,2,2,2,,,,,,,,,,,,,0,0,0,0,,,,,,,,,0,11,11,2,,,,,,,,,,,258.2334402,1395085484,1395085485,258.7430911,,,None,,1,261.2321734,,,1395085487,2014_Mar_17_1940,60.02188564,semact_fmri_builder,2,lc
3,animal,trial_images_animals\r_giraffe.png,f,n,,67,,giraffe,,,,,,0,2,2,2,,,,,,,,,,,,,0,0,0,0,,,,,,,,,0,12,12,3,,,,,,,,,,,262.231966,1395085488,1395085489,262.7422311,1395085490,263.4145615,3,0.672063238,2,265.2307985,,,1395085491,2014_Mar_17_1940,60.02188564,semact_fmri_builder,2,lc
3,object,trial_images_objects\r_hammer.png,n,v,,107,,hammer,,,,,,0,2,2,2,,,,,,,,,,,,,0,0,0,0,,,,,,,,,0,13,13,11,,,,,,,,,,,267.2301873,1395085493,1395085494,267.7394376,,,None,,2,270.2289095,,,1395085496,2014_Mar_17_1940,60.02188564,semact_fmri_builder,2,lc
3,animal,trial_images_animals\r_swan2.png,n,n,,90,,swan2,,,,,,0,2,2,2,,,,,,,,,,,,,0,0,0,0,,,,,,,,,0,14,14,1,,,,,,,,,,,272.2283502,1395085498,1395085499,272.7402586,,,None,,1,275.227106,,,1395085501,2014_Mar_17_1940,60.02188564,semact_fmri_builder,2,lc
3,,,,,,,,,,,,,,0,2,2,2,,,,,,,,,,,,,0,0,0,0,,,,,,,,,,,,,,,,,,,,,,,,,,,,,,,,,,,,2014_Mar_17_1940,60.02188564,semact_fmri_builder,2,lc
3,,,,,,,,,,,,,,0,2,2,2,,,,,,,,,,,,,,,,,,,,,,,,,,,,,,,,,,,,,,,,,,,,,,,,,,,,2014_Mar_17_1940,60.02188564,semact_fmri_builder,2,lc
4,object,trial_images_objects\r_tweezers.png,n,n,,103,,,tweezers,,,,,0,3,3,3,,,,,,,,,,,,,,,,,0,0,0,0,,,,,,,,,0,0,0,7,,,,,1395085506,280.2470413,284.2583719,1395085510,1395085511,284.7502659,,,None,,1,287.2395474,,,1395085513,2014_Mar_17_1940,60.02188564,semact_fmri_builder,2,lc
4,object,trial_images_objects\r_whisk.png,n,n,,116,,,whisk,,,,,0,3,3,3,,,,,,,,,,,,,,,,,0,0,0,0,,,,,,,,,0,1,1,10,,,,,,,288.2392124,1395085514,1395085515,288.7491527,,,None,,2,291.2379501,,,1395085517,2014_Mar_17_1940,60.02188564,semact_fmri_builder,2,lc
4,object,trial_images_objects\r_bottle_cleaner.png,n,n,,98,,,bottle_cleaner,,,,,0,3,3,3,,,,,,,,,,,,,,,,,0,0,0,0,,,,,,,,,0,2,2,9,,,,,,,293.2373847,1395085519,1395085520,293.7449305,,,None,,1,296.2361638,,,1395085522,2014_Mar_17_1940,60.02188564,semact_fmri_builder,2,lc
4,animal,trial_images_animals\r_robin.png,n,n,,62,,,robin,,,,,0,3,3,3,,,,,,,,,,,,,,,,,0,0,0,0,,,,,,,,,0,3,3,11,,,,,,,297.235941,1395085523,1395085524,297.7484165,1395085526,299.3849171,3,1.636196003,1,300.2348197,,,1395085526,2014_Mar_17_1940,60.02188564,semact_fmri_builder,2,lc
4,animal,trial_images_animals\r_sheep_blackfaced.png,n,n,,87,,,sheep_blackfaced,,,,,0,3,3,3,,,,,,,,,,,,,,,,,0,0,0,0,,,,,,,,,0,4,4,8,,,,,,,301.2345453,1395085527,1395085528,301.7460519,,,None,,1,304.2332404,,,1395085530,2014_Mar_17_1940,60.02188564,semact_fmri_builder,2,lc
4,animal,trial_images_animals\r_badger2.png,n,n,,61,,,badger2,,,,,0,3,3,3,,,,,,,,,,,,,,,,,0,0,0,0,,,,,,,,,0,5,5,3,,,,,,,305.2330379,1395085531,1395085532,305.7458355,,,None,,2,308.2317828,,,1395085534,2014_Mar_17_1940,60.02188564,semact_fmri_builder,2,lc
4,object,trial_images_objects\r_garden clippers.png,n,n,,105,,,garden_clippers,,,,,0,3,3,3,,,,,,,,,,,,,,,,,0,0,0,0,,,,,,,,,0,6,6,0,,,,,,,310.2312337,1395085536,1395085537,310.7398997,,,None,,2,313.2466169,,,1395085539,2014_Mar_17_1940,60.02188564,semact_fmri_builder,2,lc
4,animal,trial_images_animals\r_koala.png,f,n,,88,,,koala,,,,,0,3,3,3,,,,,,,,,,,,,,,,,0,0,0,0,,,,,,,,,0,7,7,5,,,,,,,315.2460848,1395085541,1395085542,315.7667853,,,None,,1,318.2448771,,,1395085544,2014_Mar_17_1940,60.02188564,semact_fmri_builder,2,lc
4,animal,trial_images_animals\r_deer_fallow.png,n,n,,71,,,deer_fallow,,,,,0,3,3,3,,,,,,,,,,,,,,,,,0,0,0,0,,,,,,,,,0,8,8,6,,,,,,,319.2446392,1395085545,1395085546,319.7545847,,,None,,4,322.2433987,,,1395085548,2014_Mar_17_1940,60.02188564,semact_fmri_builder,2,lc
4,animal,trial_images_animals\r_duck_mallard.png,n,n,,73,,,duck_mallard,,,,,0,3,3,3,,,,,,,,,,,,,,,,,0,0,0,0,,,,,,,,,0,9,9,14,,,,,,,326.2421167,1395085552,1395085553,326.7541881,1395085554,327.6579581,3,0.903497106,2,329.2409094,,,1395085555,2014_Mar_17_1940,60.02188564,semact_fmri_builder,2,lc
4,object,trial_images_objects\r_scoop.png,n,n,,110,,,scoop,,,,,0,3,3,3,,,,,,,,,,,,,,,,,0,0,0,0,,,,,,,,,0,10,10,4,,,,,,,331.2403567,1395085557,1395085558,331.7490232,,,None,,2,334.239021,,,1395085560,2014_Mar_17_1940,60.02188564,semact_fmri_builder,2,lc
4,animal,trial_images_animals\r_ladybird.png,n,n,,72,,,ladybird,,,,,0,3,3,3,,,,,,,,,,,,,,,,,0,0,0,0,,,,,,,,,0,11,11,2,,,,,,,336.2384795,1395085562,1395085563,336.7490691,1395085564,338.1208445,3,1.371489553,2,339.2372755,,,1395085565,2014_Mar_17_1940,60.02188564,semact_fmri_builder,2,lc
4,object,trial_images_objects\r_pencil.png,n,n,,111,,,pencil,,,,,0,3,3,3,,,,,,,,,,,,,,,,,0,0,0,0,,,,,,,,,0,12,12,1,,,,,,,341.23666,1395085567,1395085568,341.7444246,,,None,,4,344.2353838,,,1395085570,2014_Mar_17_1940,60.02188564,semact_fmri_builder,2,lc
4,animal,trial_images_animals\r_bulldog_whiteenglish.png,n,n,,65,,,bulldog_whiteenglish,,,,,0,3,3,3,,,,,,,,,,,,,,,,,0,0,0,0,,,,,,,,,0,13,13,12,,,,,,,348.2341354,1395085574,1395085575,348.7457274,,,None,,2,351.2328477,,,1395085577,2014_Mar_17_1940,60.02188564,semact_fmri_builder,2,lc
4,animal,trial_images_animals\r_vole.png,n,n,,79,,,vole,,,,,0,3,3,3,,,,,,,,,,,,,,,,,0,0,0,0,,,,,,,,,0,14,14,13,,,,,,,353.2323168,1395085579,1395085580,353.7431065,,,None,,1,356.2310496,,,1395085582,2014_Mar_17_1940,60.02188564,semact_fmri_builder,2,lc
4,,,,,,,,,,,,,,0,3,3,3,,,,,,,,,,,,,,,,,0,0,0,0,,,,,,,,,,,,,,,,,,,,,,,,,,,,,,,,2014_Mar_17_1940,60.02188564,semact_fmri_builder,2,lc
4,,,,,,,,,,,,,,0,3,3,3,,,,,,,,,,,,,,,,,,,,,,,,,,,,,,,,,,,,,,,,,,,,,,,,,,,,2014_Mar_17_1940,60.02188564,semact_fmri_builder,2,lc
