selectBlock,category,paths,semantic,action,number,image4,image1,image2,image3,trigger_loop.thisRepN,trigger_loop.thisTrialN,trigger_loop.thisN,trigger_loop.thisIndex,blockSelectLoop.thisRepN,blockSelectLoop.thisTrialN,blockSelectLoop.thisN,blockSelectLoop.thisIndex,b1loop.thisRepN,b1loop.thisTrialN,b1loop.thisN,b1loop.thisIndex,b2loop.thisRepN,b2loop.thisTrialN,b2loop.thisN,b2loop.thisIndex,b3loop.thisRepN,b3loop.thisTrialN,b3loop.thisN,b3loop.thisIndex,b4loop.thisRepN,b4loop.thisTrialN,b4loop.thisN,b4loop.thisIndex,b4_trialLoop.thisRepN,b4_trialLoop.thisTrialN,b4_trialLoop.thisN,b4_trialLoop.thisIndex,b1_trialLoop.thisRepN,b1_trialLoop.thisTrialN,b1_trialLoop.thisN,b1_trialLoop.thisIndex,b2_trialLoop.thisRepN,b2_trialLoop.thisTrialN,b2_trialLoop.thisN,b2_trialLoop.thisIndex,b3_trialLoop.thisRepN,b3_trialLoop.thisTrialN,b3_trialLoop.thisN,b3_trialLoop.thisIndex,GenInstrAbsTime,GenInstrTime,triggerClock,triggerAbsClock,ActInstr_startAbstime,ActInstr_starttime,startFixAbstime,startFixtime,Img_startAbstime,Img_starttime,RespgetAbsTime,Respgettime,key_resp_2.keys,key_resp_2.rt,JitDur,startJitAbstime,startJittime,SemInstr_startAbstime,SemInstr_starttime,date,frameRate,expName,session,participant
,,,,,,,,,,0,0,0,0,,,,,,,,,,,,,,,,,,,,,,,,,,,,,,,,,,,,,1395344117,6.079048946,35.11561734,1395344146,,,,,,,,,,,,,,,,2014_Mar_20_1935,60.0110132,semact_fmri_builder,1,ad
4,animal,trial_images_animals\r_rabbit.png,n,v,18,rabbit,,,,,,,,0,0,0,3,,,,,,,,,,,,,0,0,0,0,0,0,0,7,,,,,,,,,,,,,,,,,1395344146,35.163541,1395344150,39.17558749,1395344150,39.67085009,1395344151,40.89125348,3,1.220036656,0,,,,,2014_Mar_20_1935,60.0110132,semact_fmri_builder,1,ad
4,animal,trial_images_animals\r_blackbird.png,n,n,4,blackbird,,,,,,,,0,0,0,3,,,,,,,,,,,,,0,0,0,0,0,1,1,2,,,,,,,,,,,,,,,,,,,1395344153,42.15818633,1395344153,42.67059684,,,None,,2,1395344156,45.15650357,,,2014_Mar_20_1935,60.0110132,semact_fmri_builder,1,ad
4,object,trial_images_objects\r_pruning_shear.png,n,n,45,pruning_shear,,,,,,,,0,0,0,3,,,,,,,,,,,,,0,0,0,0,0,2,2,5,,,,,,,,,,,,,,,,,,,1395344158,47.15587574,1395344158,47.66408975,,,None,,2,1395344161,50.1545917,,,2014_Mar_20_1935,60.0110132,semact_fmri_builder,1,ad
4,object,trial_images_objects\r_broom.png,n,n,33,broom,,,,,,,,0,0,0,3,,,,,,,,,,,,,0,0,0,0,0,3,3,12,,,,,,,,,,,,,,,,,,,1395344163,52.15397957,1395344163,52.6597879,,,None,,3,1395344166,55.15264996,,,2014_Mar_20_1935,60.0110132,semact_fmri_builder,1,ad
4,object,trial_images_objects\r_rasp.png,n,n,47,rasp,,,,,,,,0,0,0,3,,,,,,,,,,,,,0,0,0,0,0,4,4,10,,,,,,,,,,,,,,,,,,,1395344169,58.15176254,1395344169,58.65930043,,,None,,0,,,,,2014_Mar_20_1935,60.0110132,semact_fmri_builder,1,ad
4,animal,trial_images_animals\r_horse.png,n,n,21,horse,,,,,,,,0,0,0,3,,,,,,,,,,,,,0,0,0,0,0,5,5,11,,,,,,,,,,,,,,,,,,,1395344172,61.15082321,1395344172,61.66439219,,,None,,2,1395344175,64.14933966,,,2014_Mar_20_1935,60.0110132,semact_fmri_builder,1,ad
4,object,trial_images_objects\r_pen.png,n,n,51,pen1,,,,,,,,0,0,0,3,,,,,,,,,,,,,0,0,0,0,0,6,6,0,,,,,,,,,,,,,,,,,,,1395344177,66.16544652,1395344177,66.67286911,,,None,,1,1395344180,69.16413834,,,2014_Mar_20_1935,60.0110132,semact_fmri_builder,1,ad
4,animal,trial_images_animals\r_fox_red.png,n,n,14,fox_red,,,,,,,,0,0,0,3,,,,,,,,,,,,,0,0,0,0,0,7,7,4,,,,,,,,,,,,,,,,,,,1395344181,70.16393158,1395344181,70.67419902,,,None,,0,,,,,2014_Mar_20_1935,60.0110132,semact_fmri_builder,1,ad
4,animal,trial_images_animals\r_bug_common.png,n,n,3,bug_common,,,,,,,,0,0,0,3,,,,,,,,,,,,,0,0,0,0,0,8,8,8,,,,,,,,,,,,,,,,,,,1395344184,73.1630327,1395344184,73.6747212,,,None,,0,,,,,2014_Mar_20_1935,60.0110132,semact_fmri_builder,1,ad
4,object,trial_images_objects\r_colander.png,n,n,36,colander,,,,,,,,0,0,0,3,,,,,,,,,,,,,0,0,0,0,0,9,9,1,,,,,,,,,,,,,,,,,,,1395344187,76.16190864,1395344187,76.67149482,,,None,,0,,,,,2014_Mar_20_1935,60.0110132,semact_fmri_builder,1,ad
4,animal,trial_images_animals\r_butterfly.png,n,n,6,butterfly,,,,,,,,0,0,0,3,,,,,,,,,,,,,0,0,0,0,0,10,10,6,,,,,,,,,,,,,,,,,,,1395344190,79.16076134,1395344190,79.6730644,,,None,,2,1395344193,82.15929258,,,2014_Mar_20_1935,60.0110132,semact_fmri_builder,1,ad
4,object,trial_images_objects\r_wok.png,f,n,44,wok,,,,,,,,0,0,0,3,,,,,,,,,,,,,0,0,0,0,0,11,11,9,,,,,,,,,,,,,,,,,,,1395344195,84.15872723,1395344195,84.6683925,,,None,,2,1395344198,87.15741996,,,2014_Mar_20_1935,60.0110132,semact_fmri_builder,1,ad
4,animal,trial_images_animals\r_seal_grey.png,n,n,26,seal_grey,,,,,,,,0,0,0,3,,,,,,,,,,,,,0,0,0,0,0,12,12,13,,,,,,,,,,,,,,,,,,,1395344200,89.15684253,1395344200,89.66776104,,,None,,1,1395344203,92.15566596,,,2014_Mar_20_1935,60.0110132,semact_fmri_builder,1,ad
4,object,trial_images_objects\r_knife_table.png,n,n,42,knife_table,,,,,,,,0,0,0,3,,,,,,,,,,,,,0,0,0,0,0,13,13,3,,,,,,,,,,,,,,,,,,,1395344204,93.15534208,1395344204,93.66407616,,,None,,2,1395344207,96.15406318,,,2014_Mar_20_1935,60.0110132,semact_fmri_builder,1,ad
4,,,,,,,,,,,,,,0,0,0,3,,,,,,,,,,,,,0,0,0,0,,,,,,,,,,,,,,,,,,,,,,,,,,,,,,,,,,,,2014_Mar_20_1935,60.0110132,semact_fmri_builder,1,ad
4,,,,,,,,,,,,,,0,0,0,3,,,,,,,,,,,,,,,,,,,,,,,,,,,,,,,,,,,,,,,,,,,,,,,,,,,,2014_Mar_20_1935,60.0110132,semact_fmri_builder,1,ad
1,animal,trial_images_animals\r_squirrel_red.png,n,v,22,,squirrel_red,,,,,,,0,1,1,0,0,0,0,0,,,,,,,,,,,,,,,,,0,0,0,5,,,,,,,,,,,,,,,1395344217,106.184158,1395344217,106.6774299,,,None,,0,,,1395344213,102.1567897,2014_Mar_20_1935,60.0110132,semact_fmri_builder,1,ad
1,object,trial_images_objects\r_eyelash_curlers.png,n,n,43,,eyelash_curlers,,,,,,,0,1,1,0,0,0,0,0,,,,,,,,,,,,,,,,,0,1,1,1,,,,,,,,,,,,,,,1395344220,109.1662742,1395344220,109.673036,,,None,,2,,112.1646771,,,2014_Mar_20_1935,60.0110132,semact_fmri_builder,1,ad
1,animal,trial_images_animals\r_seagull_herring.png,n,n,17,,seagull_herring,,,,,,,0,1,1,0,0,0,0,0,,,,,,,,,,,,,,,,,0,2,2,11,,,,,,,,,,,,,,,1395344225,114.1640765,1395344225,114.6764169,,,None,,0,,,,,2014_Mar_20_1935,60.0110132,semact_fmri_builder,1,ad
1,object,trial_images_objects\r_pepper_mill.png,n,n,35,,peppemill,,,,,,,0,1,1,0,0,0,0,0,,,,,,,,,,,,,,,,,0,3,3,9,,,,,,,,,,,,,,,1395344228,117.1631725,1395344228,117.6711272,,,None,,2,,120.16171,,,2014_Mar_20_1935,60.0110132,semact_fmri_builder,1,ad
1,animal,trial_images_animals\r_ostrich.png,f,n,24,,ostrich,,,,,,,0,1,1,0,0,0,0,0,,,,,,,,,,,,,,,,,0,4,4,10,,,,,,,,,,,,,,,1395344233,122.1611057,1395344233,122.6717375,,,None,,0,,,,,2014_Mar_20_1935,60.0110132,semact_fmri_builder,1,ad
1,animal,trial_images_animals\r_springbok.png,f,n,28,,springbok,,,,,,,0,1,1,0,0,0,0,0,,,,,,,,,,,,,,,,,0,5,5,4,,,,,,,,,,,,,,,1395344236,125.1602494,1395344236,125.6708115,,,None,,0,,,,,2014_Mar_20_1935,60.0110132,semact_fmri_builder,1,ad
1,animal,trial_images_animals\r_cricket_green.png,n,v,10,,cricket_green,,,,,,,0,1,1,0,0,0,0,0,,,,,,,,,,,,,,,,,0,6,6,6,,,,,,,,,,,,,,,1395344239,128.1590985,1395344239,128.6713131,,,None,,0,,,,,2014_Mar_20_1935,60.0110132,semact_fmri_builder,1,ad
1,animal,trial_images_animals\r_harvest_mouse.png,n,n,19,,harvest_mouse,,,,,,,0,1,1,0,0,0,0,0,,,,,,,,,,,,,,,,,0,7,7,7,,,,,,,,,,,,,,,1395344242,131.1579986,1395344242,131.6680698,,,None,,1,,134.1564562,,,2014_Mar_20_1935,60.0110132,semact_fmri_builder,1,ad
1,animal,trial_images_animals\r_duck_white.png,n,n,13,,duck_white,,,,,,,0,1,1,0,0,0,0,0,,,,,,,,,,,,,,,,,0,8,8,13,,,,,,,,,,,,,,,1395344246,135.1562811,1395344246,135.6678652,,,None,,1,,138.1549802,,,2014_Mar_20_1935,60.0110132,semact_fmri_builder,1,ad
1,object,trial_images_objects\r_compass.png,n,n,37,,compass,,,,,,,0,1,1,0,0,0,0,0,,,,,,,,,,,,,,,,,0,9,9,2,,,,,,,,,,,,,,,1395344250,139.1547933,1395344250,139.661413,,,None,,1,,142.1535132,,,2014_Mar_20_1935,60.0110132,semact_fmri_builder,1,ad
1,animal,trial_images_animals\r_mole.png,n,n,20,,mole,,,,,,,0,1,1,0,0,0,0,0,,,,,,,,,,,,,,,,,0,10,10,12,,,,,,,,,,,,,,,1395344254,143.1533077,1395344254,143.6628003,,,None,,3,,146.168669,,,2014_Mar_20_1935,60.0110132,semact_fmri_builder,1,ad
1,object,trial_images_objects\r_pasta_spoon.png,n,n,50,,pasta_spoon,,,,,,,0,1,1,0,0,0,0,0,,,,,,,,,,,,,,,,,0,11,11,3,,,,,,,,,,,,,,,1395344260,149.1677284,1395344260,149.6780206,,,None,,0,,,,,2014_Mar_20_1935,60.0110132,semact_fmri_builder,1,ad
1,animal,trial_images_animals\r_bat.png,n,n,2,,bat,,,,,,,0,1,1,0,0,0,0,0,,,,,,,,,,,,,,,,,0,12,12,8,,,,,,,,,,,,,,,1395344263,152.1668238,1395344263,152.6763104,,,None,,2,,155.1653312,,,2014_Mar_20_1935,60.0110132,semact_fmri_builder,1,ad
1,animal,trial_images_animals\r_cow_dairy.png,n,n,9,,cow_dairy,,,,,,,0,1,1,0,0,0,0,0,,,,,,,,,,,,,,,,,0,13,13,0,,,,,,,,,,,,,,,1395344268,157.1647607,1395344268,157.6771888,,,None,,2,,160.1634577,,,2014_Mar_20_1935,60.0110132,semact_fmri_builder,1,ad
1,,,,,,,,,,,,,,0,1,1,0,0,0,0,0,,,,,,,,,,,,,,,,,,,,,,,,,,,,,,,,,,,,,,,,,,,,,,,,2014_Mar_20_1935,60.0110132,semact_fmri_builder,1,ad
1,,,,,,,,,,,,,,0,1,1,0,,,,,,,,,,,,,,,,,,,,,,,,,,,,,,,,,,,,,,,,,,,,,,,,,,,,2014_Mar_20_1935,60.0110132,semact_fmri_builder,1,ad
2,animal,trial_images_animals\r_kangaroo_red.png,f,v,23,,,kangaroo_red,,,,,,0,2,2,1,,,,,0,0,0,0,,,,,,,,,,,,,,,,,0,0,0,7,,,,,,,,,1395344277,166.1825633,1395344281,170.193595,1395344281,170.6904327,1395344282,171.825817,3,1.135036001,0,,,,,2014_Mar_20_1935,60.0110132,semact_fmri_builder,1,ad
2,animal,trial_images_animals\r_dragonfly.png,n,n,12,,,dragonfly,,,,,,0,2,2,1,,,,,0,0,0,0,,,,,,,,,,,,,,,,,0,1,1,12,,,,,,,,,,,1395344284,173.1759385,1395344284,173.6875138,,,None,,1,,176.1908371,,,2014_Mar_20_1935,60.0110132,semact_fmri_builder,1,ad
2,object,trial_images_objects\r_maracas.png,f,v,60,,,maracas,,,,,,0,2,2,1,,,,,0,0,0,0,,,,,,,,,,,,,,,,,0,2,2,11,,,,,,,,,,,1395344288,177.1906174,1395344288,177.700726,1395344291,180.1560291,3,2.455022007,1,,180.1894182,,,2014_Mar_20_1935,60.0110132,semact_fmri_builder,1,ad
2,object,trial_images_objects\r_rolling_pin.png,n,n,56,,,rolling_pin,,,,,,0,2,2,1,,,,,0,0,0,0,,,,,,,,,,,,,,,,,0,3,3,10,,,,,,,,,,,1395344292,181.1891556,1395344292,181.7003098,,,None,,3,,184.1878465,,,2014_Mar_20_1935,60.0110132,semact_fmri_builder,1,ad
2,animal,trial_images_animals\r_goat.png,n,n,16,,,goat1,,,,,,0,2,2,1,,,,,0,0,0,0,,,,,,,,,,,,,,,,,0,4,4,1,,,,,,,,,,,1395344298,187.1869011,1395344298,187.6988869,,,None,,0,,,,,2014_Mar_20_1935,60.0110132,semact_fmri_builder,1,ad
2,object,trial_images_objects\r_cleaningbrush.png,n,n,46,,,cleaningbrush,,,,,,0,2,2,1,,,,,0,0,0,0,,,,,,,,,,,,,,,,,0,5,5,6,,,,,,,,,,,1395344301,190.186065,1395344301,190.6948733,,,None,,2,,193.1845238,,,2014_Mar_20_1935,60.0110132,semact_fmri_builder,1,ad
2,object,trial_images_objects\r_lipstick.png,n,n,48,,,lipstick,,,,,,0,2,2,1,,,,,0,0,0,0,,,,,,,,,,,,,,,,,0,6,6,8,,,,,,,,,,,1395344306,195.1839123,1395344306,195.6914161,,,None,,3,,198.1826385,,,2014_Mar_20_1935,60.0110132,semact_fmri_builder,1,ad
2,object,trial_images_objects\r_staple_remover.png,n,n,54,,,staple_remover,,,,,,0,2,2,1,,,,,0,0,0,0,,,,,,,,,,,,,,,,,0,7,7,4,,,,,,,,,,,1395344312,201.181717,1395344312,201.6903433,,,None,,1,,204.1804157,,,2014_Mar_20_1935,60.0110132,semact_fmri_builder,1,ad
2,object,trial_images_objects\r_coping_saw.png,n,n,40,,,coping_saw,,,,,,0,2,2,1,,,,,0,0,0,0,,,,,,,,,,,,,,,,,0,8,8,13,,,,,,,,,,,1395344316,205.1802217,1395344316,205.6882476,,,None,,0,,,,,2014_Mar_20_1935,60.0110132,semact_fmri_builder,1,ad
2,animal,trial_images_animals\r_camel.png,f,n,7,,,camel,,,,,,0,2,2,1,,,,,0,0,0,0,,,,,,,,,,,,,,,,,0,9,9,2,,,,,,,,,,,1395344319,208.1793297,1395344319,208.6901242,,,None,,1,,211.1778069,,,2014_Mar_20_1935,60.0110132,semact_fmri_builder,1,ad
2,object,trial_images_objects\r_pitchfork.png,n,n,52,,,pitchfork,,,,,,0,2,2,1,,,,,0,0,0,0,,,,,,,,,,,,,,,,,0,10,10,9,,,,,,,,,,,1395344323,212.177615,1395344323,212.6865778,,,None,,0,,,,,2014_Mar_20_1935,60.0110132,semact_fmri_builder,1,ad
2,animal,trial_images_animals\r_cat_wild.png,n,n,8,,,cat_wild,,,,,,0,2,2,1,,,,,0,0,0,0,,,,,,,,,,,,,,,,,0,11,11,0,,,,,,,,,,,1395344326,215.1767058,1395344326,215.6860013,,,None,,3,,218.1752144,,,2014_Mar_20_1935,60.0110132,semact_fmri_builder,1,ad
2,object,trial_images_objects\r_pizza_slicer.png,n,n,57,,,pizza_slicer,,,,,,0,2,2,1,,,,,0,0,0,0,,,,,,,,,,,,,,,,,0,12,12,3,,,,,,,,,,,1395344332,221.1909277,1395344332,221.6977985,,,None,,2,,224.1896255,,,2014_Mar_20_1935,60.0110132,semact_fmri_builder,1,ad
2,object,trial_images_objects\r_toothbrush.png,n,n,38,,,toothbrush,,,,,,0,2,2,1,,,,,0,0,0,0,,,,,,,,,,,,,,,,,0,13,13,5,,,,,,,,,,,1395344337,226.1890659,1395344337,226.7001414,,,None,,1,,229.1877632,,,2014_Mar_20_1935,60.0110132,semact_fmri_builder,1,ad
2,,,,,,,,,,,,,,0,2,2,1,,,,,0,0,0,0,,,,,,,,,,,,,,,,,,,,,,,,,,,,,,,,,,,,,,,,,,,,2014_Mar_20_1935,60.0110132,semact_fmri_builder,1,ad
2,,,,,,,,,,,,,,0,2,2,1,,,,,,,,,,,,,,,,,,,,,,,,,,,,,,,,,,,,,,,,,,,,,,,,,,,,2014_Mar_20_1935,60.0110132,semact_fmri_builder,1,ad
3,animal,trial_images_animals\r_swan_bewick.png,n,n,30,,,,swan_bewick,,,,,0,3,3,2,,,,,,,,,0,0,0,0,,,,,,,,,,,,,,,,,0,0,0,9,,,,,,,1395344349,238.2186053,1395344349,238.7124275,,,None,,3,1395344352,241.2002407,1395344345,234.2054453,2014_Mar_20_1935,60.0110132,semact_fmri_builder,1,ad
3,object,trial_images_objects\r_paintbrush.png,n,v,58,,,,paintbrush,,,,,0,3,3,2,,,,,,,,,0,0,0,0,,,,,,,,,,,,,,,,,0,1,1,11,,,,,,,1395344355,244.1991399,1395344355,244.7088504,,,None,,3,1395344358,247.1978248,,,2014_Mar_20_1935,60.0110132,semact_fmri_builder,1,ad
3,object,trial_images_objects\r_chi_instrument.png,f,n,31,,,,chi_instrument,,,,,0,3,3,2,,,,,,,,,0,0,0,0,,,,,,,,,,,,,,,,,0,2,2,5,,,,,,,1395344361,250.1968878,1395344361,250.7049066,1395344362,251.7960467,3,1.09082378,0,,,,,2014_Mar_20_1935,60.0110132,semact_fmri_builder,1,ad
3,animal,trial_images_animals\r_sheep.png,n,n,27,,,,sheep1,,,,,0,3,3,2,,,,,,,,,0,0,0,0,,,,,,,,,,,,,,,,,0,3,3,4,,,,,,,1395344364,253.1961139,1395344364,253.7064985,,,None,,0,,,,,2014_Mar_20_1935,60.0110132,semact_fmri_builder,1,ad
3,object,trial_images_objects\r_corkscrew.png,n,n,41,,,,corkscrew,,,,,0,3,3,2,,,,,,,,,0,0,0,0,,,,,,,,,,,,,,,,,0,4,4,7,,,,,,,1395344367,256.2115419,1395344367,256.7193898,,,None,,2,1395344370,259.2100412,,,2014_Mar_20_1935,60.0110132,semact_fmri_builder,1,ad
3,object,trial_images_objects\r_spatula.png,n,n,32,,,,spatula,,,,,0,3,3,2,,,,,,,,,0,0,0,0,,,,,,,,,,,,,,,,,0,5,5,6,,,,,,,1395344372,261.2094444,1395344372,261.7172754,,,None,,1,1395344375,264.2081405,,,2014_Mar_20_1935,60.0110132,semact_fmri_builder,1,ad
3,object,trial_images_objects\r_pliers.png,n,n,59,,,,pliers,,,,,0,3,3,2,,,,,,,,,0,0,0,0,,,,,,,,,,,,,,,,,0,6,6,0,,,,,,,1395344376,265.207944,1395344376,265.7194499,,,None,,2,1395344379,268.2066756,,,2014_Mar_20_1935,60.0110132,semact_fmri_builder,1,ad
3,animal,trial_images_animals\r_frog.png,n,v,15,,,,frog,,,,,0,3,3,2,,,,,,,,,0,0,0,0,,,,,,,,,,,,,,,,,0,7,7,3,,,,,,,1395344381,270.2061094,1395344381,270.7171954,,,None,,1,1395344384,273.2048444,,,2014_Mar_20_1935,60.0110132,semact_fmri_builder,1,ad
3,animal,trial_images_animals\r_owl.png,n,n,25,,,,owl2,,,,,0,3,3,2,,,,,,,,,0,0,0,0,,,,,,,,,,,,,,,,,0,8,8,13,,,,,,,1395344385,274.2046261,1395344385,274.7154604,,,None,,0,,,,,2014_Mar_20_1935,60.0110132,semact_fmri_builder,1,ad
3,object,trial_images_objects\r_axe.png,n,v,34,,,,axe,,,,,0,3,3,2,,,,,,,,,0,0,0,0,,,,,,,,,,,,,,,,,0,9,9,10,,,,,,,1395344388,277.2037445,1395344388,277.7107312,,,None,,2,1395344391,280.2022503,,,2014_Mar_20_1935,60.0110132,semact_fmri_builder,1,ad
3,animal,trial_images_animals\r_badger.png,n,n,1,,,,badger1,,,,,0,3,3,2,,,,,,,,,0,0,0,0,,,,,,,,,,,,,,,,,0,10,10,8,,,,,,,1395344393,282.2016545,1395344393,282.7139364,,,None,,0,,,,,2014_Mar_20_1935,60.0110132,semact_fmri_builder,1,ad
3,object,trial_images_objects\r_nail_file.png,n,n,53,,,,nail_file,,,,,0,3,3,2,,,,,,,,,0,0,0,0,,,,,,,,,,,,,,,,,0,11,11,1,,,,,,,1395344396,285.2007472,1395344396,285.7101583,,,None,,1,1395344399,288.1992597,,,2014_Mar_20_1935,60.0110132,semact_fmri_builder,1,ad
3,object,trial_images_objects\r_spanner.png,n,n,55,,,,spanner,,,,,0,3,3,2,,,,,,,,,0,0,0,0,,,,,,,,,,,,,,,,,0,12,12,2,,,,,,,1395344400,289.1990342,1395344400,289.7060913,,,None,,2,1395344403,292.197797,,,2014_Mar_20_1935,60.0110132,semact_fmri_builder,1,ad
3,object,trial_images_objects\r_iron.png,n,n,39,,,,iron,,,,,0,3,3,2,,,,,,,,,0,0,0,0,,,,,,,,,,,,,,,,,0,13,13,12,,,,,,,1395344405,294.1971888,1395344405,294.7066343,,,None,,1,1395344408,297.1958848,,,2014_Mar_20_1935,60.0110132,semact_fmri_builder,1,ad
3,,,,,,,,,,,,,,0,3,3,2,,,,,,,,,0,0,0,0,,,,,,,,,,,,,,,,,,,,,,,,,,,,,,,,,,,,,,,,2014_Mar_20_1935,60.0110132,semact_fmri_builder,1,ad
3,,,,,,,,,,,,,,0,3,3,2,,,,,,,,,,,,,,,,,,,,,,,,,,,,,,,,,,,,,,,,,,,,,,,,,,,,2014_Mar_20_1935,60.0110132,semact_fmri_builder,1,ad
