selectBlock,category,paths,semantic,action,image2,number,image1,image4,image3,trigger_loop.thisRepN,trigger_loop.thisTrialN,trigger_loop.thisN,trigger_loop.thisIndex,blockSelectLoop.thisRepN,blockSelectLoop.thisTrialN,blockSelectLoop.thisN,blockSelectLoop.thisIndex,b1loop.thisRepN,b1loop.thisTrialN,b1loop.thisN,b1loop.thisIndex,b2loop.thisRepN,b2loop.thisTrialN,b2loop.thisN,b2loop.thisIndex,b2_trialLoop.thisRepN,b2_trialLoop.thisTrialN,b2_trialLoop.thisN,b2_trialLoop.thisIndex,b3loop.thisRepN,b3loop.thisTrialN,b3loop.thisN,b3loop.thisIndex,b4loop.thisRepN,b4loop.thisTrialN,b4loop.thisN,b4loop.thisIndex,b1_trialLoop.thisRepN,b1_trialLoop.thisTrialN,b1_trialLoop.thisN,b1_trialLoop.thisIndex,b4_trialLoop.thisRepN,b4_trialLoop.thisTrialN,b4_trialLoop.thisN,b4_trialLoop.thisIndex,b3_trialLoop.thisRepN,b3_trialLoop.thisTrialN,b3_trialLoop.thisN,b3_trialLoop.thisIndex,GenInstrAbsTime,GenInstrTime,triggerClock,triggerAbsClock,ActInstr_startAbstime,ActInstr_starttime,startFixtime,startFixAbstime,Img_startAbstime,Img_starttime,RespgetAbsTime,Respgettime,key_resp_2.keys,key_resp_2.rt,JitDur,startJittime,SemInstr_startAbstime,SemInstr_starttime,startJitAbstime,date,frameRate,expName,session,participant,
,,,,,,,,,,0,0,0,0,,,,,,,,,,,,,,,,,,,,,,,,,,,,,,,,,,,,,1396456195,13.7645070902,60.6018996972,1396456242,,,,,,,,,,,,,,,,2014_Apr_02_1729,60.0209977082,semact_fmri_builder,002,rb006,
2,animal,trial_images_animals\r_grasshopper_common.png,n,v,grasshopper_common,70,,,,,,,,0,0,0,1,,,,,0,0,0,0,0,0,0,7,,,,,,,,,,,,,,,,,,,,,,,,,1396456242,60.6291198567,63.6498759866,1396456245,1396456246,64.1453402995,1396456246,64.9650157609,3,0.819111915094,1.5,66.6312741307,,,,2014_Apr_02_1729,60.0209977082,semact_fmri_builder,002,rb006,
2,animal,trial_images_animals\r_vole.png,n,n,vole,79,,,,,,,,0,0,0,1,,,,,0,0,0,0,0,1,1,12,,,,,,,,,,,,,,,,,,,,,,,,,,,68.1306313499,1396456250,1396456250,68.6460863116,,,None,,3.5,71.1293971021,,,,2014_Apr_02_1729,60.0209977082,semact_fmri_builder,002,rb006,
2,animal,trial_images_animals\r_moth.png,n,n,moth,66,,,,,,,,0,0,0,1,,,,,0,0,0,0,0,2,2,4,,,,,,,,,,,,,,,,,,,,,,,,,,,74.628337774,1396456256,1396456257,75.1404766569,,,None,,2.5,77.6270657955,,,,2014_Apr_02_1729,60.0209977082,semact_fmri_builder,002,rb006,
2,object,trial_images_objects\r_tin_opener.png,n,n,tin_opener,95,,,,,,,,0,0,0,1,,,,,0,0,0,0,0,3,3,5,,,,,,,,,,,,,,,,,,,,,,,,,,,80.1263569104,1396456262,1396456262,80.6393971051,,,None,,0.5,83.1251190405,,,,2014_Apr_02_1729,60.0209977082,semact_fmri_builder,002,rb006,
2,object,trial_images_objects\r_mop.png,n,n,mop,93,,,,,,,,0,0,0,1,,,,,0,0,0,0,0,4,4,1,,,,,,,,,,,,,,,,,,,,,,,,,,,83.6250884031,1396456265,1396456266,84.1344391356,,,None,,0.5,86.6238921879,,,,2014_Apr_02_1729,60.0209977082,semact_fmri_builder,002,rb006,
2,animal,trial_images_animals\r_penguin.png,f,n,penguin,84,,,,,,,,0,0,0,1,,,,,0,0,0,0,0,5,5,11,,,,,,,,,,,,,,,,,,,,,,,,,,,87.1238718133,1396456269,1396456269,87.633298611,,,None,,1.5,90.1225998348,,,,2014_Apr_02_1729,60.0209977082,semact_fmri_builder,002,rb006,
2,animal,trial_images_animals\r_koala.png,f,n,koala,88,,,,,,,,0,0,0,1,,,,,0,0,0,0,0,6,6,6,,,,,,,,,,,,,,,,,,,,,,,,,,,91.6222238857,1396456273,1396456274,92.1360280523,,,None,,1.5,94.6209965804,,,,2014_Apr_02_1729,60.0209977082,semact_fmri_builder,002,rb006,
2,object,trial_images_objects\r_squeezer.png,n,n,squeezer,101,,,,,,,,0,0,0,1,,,,,0,0,0,0,0,7,7,9,,,,,,,,,,,,,,,,,,,,,,,,,,,96.1372828257,1396456278,1396456278,96.648827374,,,None,,1.5,99.1360434465,,,,2014_Apr_02_1729,60.0209977082,semact_fmri_builder,002,rb006,
2,object,trial_images_objects\r_shisha.png,f,n,shisha,120,,,,,,,,0,0,0,1,,,,,0,0,0,0,0,8,8,0,,,,,,,,,,,,,,,,,,,,,,,,,,,100.635681986,1396456282,1396456283,101.146300471,,,None,,0.5,103.634486978,,,,2014_Apr_02_1729,60.0209977082,semact_fmri_builder,002,rb006,
2,animal,trial_images_animals\r_owl_whitebarn.png,n,n,owl_whitebarn,85,,,,,,,,0,0,0,1,,,,,0,0,0,0,0,9,9,8,,,,,,,,,,,,,,,,,,,,,,,,,,,104.134417403,1396456286,1396456286,104.645059734,,,None,,2.5,107.133182551,,,,2014_Apr_02_1729,60.0209977082,semact_fmri_builder,002,rb006,
2,animal,trial_images_animals\r_toad.png,n,v,toad,75,,,,,,,,0,0,0,1,,,,,0,0,0,0,0,10,10,2,,,,,,,,,,,,,,,,,,,,,,,,,,,109.632469139,1396456291,1396456292,110.144520184,1396456292,110.965134688,3,0.820358538571,2.5,112.631299486,,,,2014_Apr_02_1729,60.0209977082,semact_fmri_builder,002,rb006,
2,object,trial_images_objects\r_crosscut_saw.png,n,n,crosscut_saw,100,,,,,,,,0,0,0,1,,,,,0,0,0,0,0,11,11,13,,,,,,,,,,,,,,,,,,,,,,,,,,,115.130518761,1396456297,1396456297,115.638473457,,,None,,1.5,118.129254027,,,,2014_Apr_02_1729,60.0209977082,semact_fmri_builder,002,rb006,
2,animal,trial_images_animals\r_goat2.png,n,n,goat2,76,,,,,,,,0,0,0,1,,,,,0,0,0,0,0,12,12,3,,,,,,,,,,,,,,,,,,,,,,,,,,,119.628889246,1396456301,1396456302,120.138712368,,,None,,2.5,122.627669487,,,,2014_Apr_02_1729,60.0209977082,semact_fmri_builder,002,rb006,
2,animal,trial_images_animals\r_ladybird.png,n,n,ladybird,72,,,,,,,,0,0,0,1,,,,,0,0,0,0,0,13,13,10,,,,,,,,,,,,,,,,,,,,,,,,,,,125.126948528,1396456307,1396456307,125.638912944,,,None,,1.5,128.125693453,,,,2014_Apr_02_1729,60.0209977082,semact_fmri_builder,002,rb006,
2,,,,,,,,,,,,,,0,0,0,1,,,,,0,0,0,0,,,,,,,,,,,,,,,,,,,,,,,,,,,,,,,,,,,,,,,,,,,,2014_Apr_02_1729,60.0209977082,semact_fmri_builder,002,rb006,
2,,,,,,,,,,,,,,0,0,0,1,,,,,,,,,,,,,,,,,,,,,,,,,,,,,,,,,,,,,,,,,,,,,,,,,,,,2014_Apr_02_1729,60.0209977082,semact_fmri_builder,002,rb006,
1,object,trial_images_objects\r_rake.png,n,n,,112,rake,,,,,,,0,1,1,0,0,0,0,0,,,,,,,,,,,,,,,,,0,0,0,8,,,,,,,,,,,,,,,135.656405517,1396456317,1396456318,136.148187612,,,None,,2.5,138.63871433,1396456314,132.638084679,,2014_Apr_02_1729,60.0209977082,semact_fmri_builder,002,rb006,
1,animal,trial_images_animals\r_giraffe.png,f,n,,67,giraffe,,,,,,,0,1,1,0,0,0,0,0,,,,,,,,,,,,,,,,,0,1,1,2,,,,,,,,,,,,,,,141.137876858,1396456323,1396456323,141.648927587,1396456324,142.53722952,3,0.887998577702,3.5,144.136746446,,,,2014_Apr_02_1729,60.0209977082,semact_fmri_builder,002,rb006,
1,object,trial_images_objects\r_chopsticks.png,f,n,,96,chopsticks,,,,,,,0,1,1,0,0,0,0,0,,,,,,,,,,,,,,,,,0,2,2,4,,,,,,,,,,,,,,,147.635570907,1396456329,1396456330,148.143513226,1396456331,149.951220197,3,1.80742746115,0.5,150.634382238,,,,2014_Apr_02_1729,60.0209977082,semact_fmri_builder,002,rb006,
1,animal,trial_images_animals\r_pony.png,n,n,,81,pony,,,,,,,0,1,1,0,0,0,0,0,,,,,,,,,,,,,,,,,0,3,3,11,,,,,,,,,,,,,,,151.134280365,1396456333,1396456333,151.646441584,,,None,,2.5,154.14969835,,,,2014_Apr_02_1729,60.0209977082,semact_fmri_builder,002,rb006,
1,animal,trial_images_animals\r_crow.png,n,n,,64,crow,,,,,,,0,1,1,0,0,0,0,0,,,,,,,,,,,,,,,,,0,4,4,5,,,,,,,,,,,,,,,156.648999426,1396456338,1396456339,157.160128635,,,None,,0.5,159.647751293,,,,2014_Apr_02_1729,60.0209977082,semact_fmri_builder,002,rb006,
1,animal,trial_images_animals\r_beaver.png,n,n,,63,beaver,,,,,,,0,1,1,0,0,0,0,0,,,,,,,,,,,,,,,,,0,5,5,0,,,,,,,,,,,,,,,160.1477279,1396456342,1396456342,160.66114178,,,None,,3.5,163.146495766,,,,2014_Apr_02_1729,60.0209977082,semact_fmri_builder,002,rb006,
1,animal,trial_images_animals\r_bulldog_whiteenglish.png,n,n,,65,bulldog_whiteenglish,,,,,,,0,1,1,0,0,0,0,0,,,,,,,,,,,,,,,,,0,6,6,3,,,,,,,,,,,,,,,166.645440361,1396456348,1396456349,167.157295811,,,None,,1.5,169.644173514,,,,2014_Apr_02_1729,60.0209977082,semact_fmri_builder,002,rb006,
1,object,trial_images_objects\r_computer_mouse.png,n,n,,99,computer_mouse,,,,,,,0,1,1,0,0,0,0,0,,,,,,,,,,,,,,,,,0,7,7,13,,,,,,,,,,,,,,,171.143810545,1396456353,1396456353,171.653143166,,,None,,2.5,174.142572675,,,,2014_Apr_02_1729,60.0209977082,semact_fmri_builder,002,rb006,
1,object,trial_images_objects\r_hairbrush.png,n,n,,106,hairbrush,,,,,,,0,1,1,0,0,0,0,0,,,,,,,,,,,,,,,,,0,8,8,1,,,,,,,,,,,,,,,176.641863488,1396456358,1396456359,177.151040659,,,None,,0.5,179.6406063,,,,2014_Apr_02_1729,60.0209977082,semact_fmri_builder,002,rb006,
1,animal,trial_images_animals\r_wallaby.png,f,v,,83,wallaby,,,,,,,0,1,1,0,0,0,0,0,,,,,,,,,,,,,,,,,0,9,9,6,,,,,,,,,,,,,,,180.140595584,1396456362,1396456362,180.650608265,1396456363,181.506612085,3,0.855734875484,2.5,183.139473925,,,,2014_Apr_02_1729,60.0209977082,semact_fmri_builder,002,rb006,
1,animal,trial_images_animals\r_otter.png,n,n,,86,otter,,,,,,,0,1,1,0,0,0,0,0,,,,,,,,,,,,,,,,,0,10,10,10,,,,,,,,,,,,,,,185.638644,1396456367,1396456368,186.151034018,,,None,,2.5,188.637390132,,,,2014_Apr_02_1729,60.0209977082,semact_fmri_builder,002,rb006,
1,object,trial_images_objects\r_garden clippers.png,n,n,,105,garden_clippers,,,,,,,0,1,1,0,0,0,0,0,,,,,,,,,,,,,,,,,0,11,11,9,,,,,,,,,,,,,,,191.136668871,1396456373,1396456373,191.644588854,,,None,,3.5,194.135420135,,,,2014_Apr_02_1729,60.0209977082,semact_fmri_builder,002,rb006,
1,object,trial_images_objects\r_african_sickle.png,f,n,,94,african_sickle,,,,,,,0,1,1,0,0,0,0,0,,,,,,,,,,,,,,,,,0,12,12,7,,,,,,,,,,,,,,,197.634360505,1396456379,1396456380,198.142430505,1396456382,200.233236008,3,2.09052478623,0.5,200.649851235,,,,2014_Apr_02_1729,60.0209977082,semact_fmri_builder,002,rb006,
1,animal,trial_images_animals\r_polecat.png,n,n,,89,polecat,,,,,,,0,1,1,0,0,0,0,0,,,,,,,,,,,,,,,,,0,13,13,12,,,,,,,,,,,,,,,201.149746948,1396456383,1396456383,201.665121316,,,None,,1.5,204.148531112,,,,2014_Apr_02_1729,60.0209977082,semact_fmri_builder,002,rb006,
1,,,,,,,,,,,,,,0,1,1,0,0,0,0,0,,,,,,,,,,,,,,,,,,,,,,,,,,,,,,,,,,,,,,,,,,,,,,,,2014_Apr_02_1729,60.0209977082,semact_fmri_builder,002,rb006,
1,,,,,,,,,,,,,,0,1,1,0,,,,,,,,,,,,,,,,,,,,,,,,,,,,,,,,,,,,,,,,,,,,,,,,,,,,2014_Apr_02_1729,60.0209977082,semact_fmri_builder,002,rb006,
4,object,trial_images_objects\r_tweezers.png,n,n,,103,,tweezers,,,,,,0,2,2,3,,,,,,,,,,,,,,,,,0,0,0,0,,,,,0,0,0,0,,,,,,,,,1396456390,208.677798843,211.680098909,1396456393,1396456394,212.173907295,,,None,,3.5,214.678387443,,,1396456396,2014_Apr_02_1729,60.0209977082,semact_fmri_builder,002,rb006,
4,object,trial_images_objects\r_stapler.png,n,n,,97,,stapler,,,,,,0,2,2,3,,,,,,,,,,,,,,,,,0,0,0,0,,,,,0,1,1,13,,,,,,,,,,,218.177153346,1396456400,1396456400,218.688931825,1396456402,220.84259975,3,2.15336125005,1.5,221.175985202,,,1396456403,2014_Apr_02_1729,60.0209977082,semact_fmri_builder,002,rb006,
4,object,trial_images_objects\r_handbell.png,n,v,,91,,handbell,,,,,,0,2,2,3,,,,,,,,,,,,,,,,,0,0,0,0,,,,,0,2,2,12,,,,,,,,,,,222.675510852,1396456404,1396456405,223.186498796,1396456406,224.824479942,3,1.63770827743,2.5,225.674387381,,,1396456407,2014_Apr_02_1729,60.0209977082,semact_fmri_builder,002,rb006,
4,object,trial_images_objects\r_whisk.png,n,n,,116,,whisk,,,,,,0,2,2,3,,,,,,,,,,,,,,,,,0,0,0,0,,,,,0,3,3,11,,,,,,,,,,,228.173569832,1396456410,1396456410,228.683602434,,,None,,0.5,231.172296042,,,1396456413,2014_Apr_02_1729,60.0209977082,semact_fmri_builder,002,rb006,
4,animal,trial_images_animals\r_goose_canada.png,n,n,,77,,goose_canada,,,,,,0,2,2,3,,,,,,,,,,,,,,,,,0,0,0,0,,,,,0,4,4,9,,,,,,,,,,,231.672273253,1396456413,1396456414,232.182474889,,,None,,3.5,234.671044438,,,1396456416,2014_Apr_02_1729,60.0209977082,semact_fmri_builder,002,rb006,
4,animal,trial_images_animals\r_fox2.png,n,n,,74,,fox2,,,,,,0,2,2,3,,,,,,,,,,,,,,,,,0,0,0,0,,,,,0,5,5,3,,,,,,,,,,,238.169993863,1396456420,1396456420,238.684446999,,,None,,0.5,241.168732148,,,1396456423,2014_Apr_02_1729,60.0209977082,semact_fmri_builder,002,rb006,
4,animal,trial_images_animals\r_hedgehog.png,n,n,,80,,hedgehog,,,,,,0,2,2,3,,,,,,,,,,,,,,,,,0,0,0,0,,,,,0,6,6,2,,,,,,,,,,,241.668732902,1396456423,1396456424,242.181406656,,,None,,1.5,244.667494429,,,1396456426,2014_Apr_02_1729,60.0209977082,semact_fmri_builder,002,rb006,
4,object,trial_images_objects\r_cutteknife.png,n,n,,102,,cutterknife,,,,,,0,2,2,3,,,,,,,,,,,,,,,,,0,0,0,0,,,,,0,7,7,10,,,,,,,,,,,246.16712512,1396456428,1396456428,246.675965733,,,None,,1.5,249.165899324,,,1396456431,2014_Apr_02_1729,60.0209977082,semact_fmri_builder,002,rb006,
4,object,trial_images_objects\r_scissors.png,n,n,,114,,scissors,,,,,,0,2,2,3,,,,,,,,,,,,,,,,,0,0,0,0,,,,,0,8,8,7,,,,,,,,,,,250.665526092,1396456432,1396456433,251.173586433,,,None,,3.5,253.664266187,,,1396456435,2014_Apr_02_1729,60.0209977082,semact_fmri_builder,002,rb006,
4,animal,trial_images_animals\r_robin.png,n,n,,62,,robin,,,,,,0,2,2,3,,,,,,,,,,,,,,,,,0,0,0,0,,,,,0,9,9,4,,,,,,,,,,,257.163220744,1396456439,1396456439,257.675857371,,,None,,2.5,260.161988307,,,1396456442,2014_Apr_02_1729,60.0209977082,semact_fmri_builder,002,rb006,
4,animal,trial_images_animals\r_highland_cow.png,n,n,,69,,highland_cow,,,,,,0,2,2,3,,,,,,,,,,,,,,,,,0,0,0,0,,,,,0,10,10,1,,,,,,,,,,,262.677950974,1396456444,1396456445,263.191110699,,,None,,1.5,265.67666179,,,1396456447,2014_Apr_02_1729,60.0209977082,semact_fmri_builder,002,rb006,
4,object,trial_images_objects\r_hammer.png,n,v,,107,,hammer,,,,,,0,2,2,3,,,,,,,,,,,,,,,,,0,0,0,0,,,,,0,11,11,6,,,,,,,,,,,267.176283124,1396456449,1396456449,267.686126167,1396456450,268.525535407,3,0.839133050343,3.5,270.175131884,,,1396456452,2014_Apr_02_1729,60.0209977082,semact_fmri_builder,002,rb006,
4,object,trial_images_objects\r_key.png,n,n,,108,,key,,,,,,0,2,2,3,,,,,,,,,,,,,,,,,0,0,0,0,,,,,0,12,12,8,,,,,,,,,,,273.673948497,1396456455,1396456456,274.18394186,,,None,,2.5,276.672709722,,,1396456458,2014_Apr_02_1729,60.0209977082,semact_fmri_builder,002,rb006,
4,object,trial_images_objects\r_scoop.png,n,n,,110,,scoop,,,,,,0,2,2,3,,,,,,,,,,,,,,,,,0,0,0,0,,,,,0,13,13,5,,,,,,,,,,,279.171989668,1396456461,1396456461,279.682426442,,,None,,1.5,282.170724632,,,1396456464,2014_Apr_02_1729,60.0209977082,semact_fmri_builder,002,rb006,
4,,,,,,,,,,,,,,0,2,2,3,,,,,,,,,,,,,,,,,0,0,0,0,,,,,,,,,,,,,,,,,,,,,,,,,,,,,,,,2014_Apr_02_1729,60.0209977082,semact_fmri_builder,002,rb006,
4,,,,,,,,,,,,,,0,2,2,3,,,,,,,,,,,,,,,,,,,,,,,,,,,,,,,,,,,,,,,,,,,,,,,,,,,,2014_Apr_02_1729,60.0209977082,semact_fmri_builder,002,rb006,
3,object,trial_images_objects\r_nailclipper.png,n,n,,113,,,nailclipper,,,,,0,3,3,2,,,,,,,,,,,,,0,0,0,0,,,,,,,,,,,,,0,0,0,8,,,,,,,289.70129845,1396456471,1396456472,290.193762113,,,None,,0.5,292.683787164,1396456468,286.681981823,1396456474,2014_Apr_02_1729,60.0209977082,semact_fmri_builder,002,rb006,
3,object,trial_images_objects\r_pincer.png,n,n,,119,,,pincer,,,,,0,3,3,2,,,,,,,,,,,,,0,0,0,0,,,,,,,,,,,,,0,1,1,5,,,,,,,293.18361647,1396456475,1396456475,293.694088862,,,None,,0.5,296.182397616,,,1396456478,2014_Apr_02_1729,60.0209977082,semact_fmri_builder,002,rb006,
3,animal,trial_images_animals\r_deer_fallow.png,n,n,,71,,,deer_fallow,,,,,0,3,3,2,,,,,,,,,,,,,0,0,0,0,,,,,,,,,,,,,0,2,2,9,,,,,,,296.682368186,1396456478,1396456479,297.192083247,,,None,,3.5,299.681138466,,,1396456481,2014_Apr_02_1729,60.0209977082,semact_fmri_builder,002,rb006,
3,object,trial_images_objects\r_cakeslicer.png,n,n,,92,,,cakeslicer,,,,,0,3,3,2,,,,,,,,,,,,,0,0,0,0,,,,,,,,,,,,,0,3,3,1,,,,,,,303.180105399,1396456485,1396456485,303.688565988,,,None,,1.5,306.17881863,,,1396456488,2014_Apr_02_1729,60.0209977082,semact_fmri_builder,002,rb006,
3,animal,trial_images_animals\r_hare.png,n,v,,78,,,hare,,,,,0,3,3,2,,,,,,,,,,,,,0,0,0,0,,,,,,,,,,,,,0,4,4,2,,,,,,,307.678461093,1396456489,1396456490,308.188681444,,,None,,2.5,310.67721296,,,1396456492,2014_Apr_02_1729,60.0209977082,semact_fmri_builder,002,rb006,
3,animal,trial_images_animals\r_jerboas.png,f,v,,82,,,jerboas,,,,,0,3,3,2,,,,,,,,,,,,,0,0,0,0,,,,,,,,,,,,,0,5,5,12,,,,,,,313.176495926,1396456495,1396456495,313.689428059,1396456497,315.292187716,3,1.60244120872,1.5,316.175369135,,,1396456498,2014_Apr_02_1729,60.0209977082,semact_fmri_builder,002,rb006,
3,object,trial_images_objects\r_paint_roller.png,n,v,,117,,,paint_roller,,,,,0,3,3,2,,,,,,,,,,,,,0,0,0,0,,,,,,,,,,,,,0,6,6,13,,,,,,,317.674890558,1396456499,1396456500,318.184543137,,,None,,2.5,320.673624315,,,1396456502,2014_Apr_02_1729,60.0209977082,semact_fmri_builder,002,rb006,
3,object,trial_images_objects\r_bottle_cleaner.png,n,n,,98,,,bottle_cleaner,,,,,0,3,3,2,,,,,,,,,,,,,0,0,0,0,,,,,,,,,,,,,0,7,7,10,,,,,,,323.173021076,1396456505,1396456505,323.681632286,,,None,,3.5,326.171695972,,,1396456508,2014_Apr_02_1729,60.0209977082,semact_fmri_builder,002,rb006,
3,object,trial_images_objects\r_teapot.png,n,n,,109,,,teapot,,,,,0,3,3,2,,,,,,,,,,,,,0,0,0,0,,,,,,,,,,,,,0,8,8,3,,,,,,,329.670609176,1396456511,1396456512,330.182447421,,,None,,0.5,332.686008146,,,1396456514,2014_Apr_02_1729,60.0209977082,semact_fmri_builder,002,rb006,
3,animal,trial_images_animals\r_swan2.png,n,n,,90,,,swan2,,,,,0,3,3,2,,,,,,,,,,,,,0,0,0,0,,,,,,,,,,,,,0,9,9,0,,,,,,,333.186009504,1396456515,1396456515,333.701423113,,,None,,1.5,336.184769521,,,1396456518,2014_Apr_02_1729,60.0209977082,semact_fmri_builder,002,rb006,
3,object,trial_images_objects\r_frypan.png,n,n,,104,,,frypan,,,,,0,3,3,2,,,,,,,,,,,,,0,0,0,0,,,,,,,,,,,,,0,10,10,7,,,,,,,337.684418625,1396456519,1396456520,338.194702062,,,None,,0.5,340.68316355,,,1396456522,2014_Apr_02_1729,60.0209977082,semact_fmri_builder,002,rb006,
3,animal,trial_images_animals\r_sheep_blackfaced.png,n,n,,87,,,sheep_blackfaced,,,,,0,3,3,2,,,,,,,,,,,,,0,0,0,0,,,,,,,,,,,,,0,11,11,11,,,,,,,341.18313412,1396456523,1396456523,341.700596961,,,None,,1.5,344.181941225,,,1396456526,2014_Apr_02_1729,60.0209977082,semact_fmri_builder,002,rb006,
3,animal,trial_images_animals\r_badger2.png,n,n,,61,,,badger2,,,,,0,3,3,2,,,,,,,,,,,,,0,0,0,0,,,,,,,,,,,,,0,12,12,4,,,,,,,345.681583991,1396456527,1396456528,346.200632126,,,None,,3.5,348.68030507,,,1396456530,2014_Apr_02_1729,60.0209977082,semact_fmri_builder,002,rb006,
3,animal,trial_images_animals\r_dog_terrier.png,n,n,,68,,,dog_terrier,,,,,0,3,3,2,,,,,,,,,,,,,0,0,0,0,,,,,,,,,,,,,0,13,13,6,,,,,,,352.179256608,1396456534,1396456534,352.691221024,,,None,,1.5,355.177982516,,,1396456537,2014_Apr_02_1729,60.0209977082,semact_fmri_builder,002,rb006,
3,,,,,,,,,,,,,,0,3,3,2,,,,,,,,,,,,,0,0,0,0,,,,,,,,,,,,,,,,,,,,,,,,,,,,,,,,,,,,2014_Apr_02_1729,60.0209977082,semact_fmri_builder,002,rb006,
3,,,,,,,,,,,,,,0,3,3,2,,,,,,,,,,,,,,,,,,,,,,,,,,,,,,,,,,,,,,,,,,,,,,,,,,,,2014_Apr_02_1729,60.0209977082,semact_fmri_builder,002,rb006,
