selectBlock,category,paths,semantic,action,image2,number,image3,image1,image4,trigger_loop.thisRepN,trigger_loop.thisTrialN,trigger_loop.thisN,trigger_loop.thisIndex,blockSelectLoop.thisRepN,blockSelectLoop.thisTrialN,blockSelectLoop.thisN,blockSelectLoop.thisIndex,b1loop.thisRepN,b1loop.thisTrialN,b1loop.thisN,b1loop.thisIndex,b2loop.thisRepN,b2loop.thisTrialN,b2loop.thisN,b2loop.thisIndex,b2_trialLoop.thisRepN,b2_trialLoop.thisTrialN,b2_trialLoop.thisN,b2_trialLoop.thisIndex,b3loop.thisRepN,b3loop.thisTrialN,b3loop.thisN,b3loop.thisIndex,b4loop.thisRepN,b4loop.thisTrialN,b4loop.thisN,b4loop.thisIndex,b3_trialLoop.thisRepN,b3_trialLoop.thisTrialN,b3_trialLoop.thisN,b3_trialLoop.thisIndex,b1_trialLoop.thisRepN,b1_trialLoop.thisTrialN,b1_trialLoop.thisN,b1_trialLoop.thisIndex,b4_trialLoop.thisRepN,b4_trialLoop.thisTrialN,b4_trialLoop.thisN,b4_trialLoop.thisIndex,GenInstrAbsTime,GenInstrTime,triggerClock,triggerAbsClock,ActInstr_startAbstime,ActInstr_starttime,startFixtime,startFixAbstime,Img_startAbstime,Img_starttime,RespgetAbsTime,Respgettime,key_resp_2.keys,key_resp_2.rt,JitDur,startJittime,SemInstr_startAbstime,SemInstr_starttime,startJitAbstime,date,frameRate,expName,session,participant
,,,,,,,,,,0,0,0,0,,,,,,,,,,,,,,,,,,,,,,,,,,,,,,,,,,,,,1397060545,365.0510616,409.6402838,1397060590,,,,,,,,,,,,,,,,2014_Apr_09_1722,60.02212093,semact_fmri_builder,1,sz
2,animal,trial_images_animals\r_bat.png,n,n,bat,2,,,,,,,,0,0,0,1,,,,,0,0,0,0,0,0,0,4,,,,,,,,,,,,,,,,,,,,,,,,,1397060590,409.7189323,412.7316974,1397060593,1397060593,413.227266,1397060594,414.1966875,4,0.969017062,2.5,415.7130108,,,,2014_Apr_09_1722,60.02212093,semact_fmri_builder,1,sz
2,object,trial_images_objects\r_colander.png,n,n,colander,36,,,,,,,,0,0,0,1,,,,,0,0,0,0,0,1,1,9,,,,,,,,,,,,,,,,,,,,,,,,,,,418.2120134,1397060598,1397060599,418.7218943,,,None,,0.5,421.2106687,,,,2014_Apr_09_1722,60.02212093,semact_fmri_builder,1,sz
2,object,trial_images_objects\r_pitchfork.png,n,n,pitchfork,52,,,,,,,,0,0,0,1,,,,,0,0,0,0,0,2,2,5,,,,,,,,,,,,,,,,,,,,,,,,,,,421.7106338,1397060602,1397060602,422.2200764,1397060604,423.6764173,4,1.45605833,2.5,424.7261122,,,,2014_Apr_09_1722,60.02212093,semact_fmri_builder,1,sz
2,object,trial_images_objects\r_cleaningbrush.png,n,n,cleaningbrush,46,,,,,,,,0,0,0,1,,,,,0,0,0,0,0,3,3,1,,,,,,,,,,,,,,,,,,,,,,,,,,,427.2252512,1397060607,1397060608,427.735302,,,None,,1.5,430.2239231,,,,2014_Apr_09_1722,60.02212093,semact_fmri_builder,1,sz
2,object,trial_images_objects\r_broom.png,n,n,broom,33,,,,,,,,0,0,0,1,,,,,0,0,0,0,0,4,4,7,,,,,,,,,,,,,,,,,,,,,,,,,,,431.7235293,1397060612,1397060612,432.2313342,,,None,,0.5,434.7222133,,,,2014_Apr_09_1722,60.02212093,semact_fmri_builder,1,sz
2,animal,trial_images_animals\r_butterfly.png,n,n,butterfly,6,,,,,,,,0,0,0,1,,,,,0,0,0,0,0,5,5,10,,,,,,,,,,,,,,,,,,,,,,,,,,,435.2221987,1397060615,1397060616,435.7397934,1397060617,436.4548999,4,0.71483696,2.5,438.2209992,,,,2014_Apr_09_1722,60.02212093,semact_fmri_builder,1,sz
2,object,trial_images_objects\r_spanner.png,n,n,spanner,55,,,,,,,,0,0,0,1,,,,,0,0,0,0,0,6,6,6,,,,,,,,,,,,,,,,,,,,,,,,,,,440.7201315,1397060621,1397060621,441.2294818,,,None,,0.5,443.7188333,,,,2014_Apr_09_1722,60.02212093,semact_fmri_builder,1,sz
2,animal,trial_images_animals\r_frog.png,n,v,frog,15,,,,,,,,0,0,0,1,,,,,0,0,0,0,0,7,7,8,,,,,,,,,,,,,,,,,,,,,,,,,,,444.2187915,1397060624,1397060625,444.7302779,1397060626,445.4181596,4,0.687618868,1.5,447.2176702,,,,2014_Apr_09_1722,60.02212093,semact_fmri_builder,1,sz
2,object,trial_images_objects\r_nail_file.png,n,n,nail_file,53,,,,,,,,0,0,0,1,,,,,0,0,0,0,0,8,8,0,,,,,,,,,,,,,,,,,,,,,,,,,,,448.717105,1397060629,1397060629,449.2259394,,,None,,1.5,451.7157835,,,,2014_Apr_09_1722,60.02212093,semact_fmri_builder,1,sz
2,object,trial_images_objects\r_kettle.png,n,n,kettle,49,,,,,,,,0,0,0,1,,,,,0,0,0,0,0,9,9,2,,,,,,,,,,,,,,,,,,,,,,,,,,,453.2154136,1397060633,1397060634,453.7250331,,,None,,1.5,456.2141024,,,,2014_Apr_09_1722,60.02212093,semact_fmri_builder,1,sz
2,object,trial_images_objects\r_pasta_spoon.png,n,n,pasta_spoon,50,,,,,,,,0,0,0,1,,,,,0,0,0,0,0,10,10,13,,,,,,,,,,,,,,,,,,,,,,,,,,,457.713709,1397060638,1397060638,458.2250831,1397060640,460.1292677,4,1.903908432,1.5,460.7124775,,,,2014_Apr_09_1722,60.02212093,semact_fmri_builder,1,sz
2,animal,trial_images_animals\r_cricket_green.png,n,v,cricket_green,10,,,,,,,,0,0,0,1,,,,,0,0,0,0,0,11,11,12,,,,,,,,,,,,,,,,,,,,,,,,,,,462.2120013,1397060642,1397060643,462.7419298,1397060644,464.1944008,4,1.45220263,2.5,465.2107753,,,,2014_Apr_09_1722,60.02212093,semact_fmri_builder,1,sz
2,animal,trial_images_animals\r_blackbird.png,n,n,blackbird,4,,,,,,,,0,0,0,1,,,,,0,0,0,0,0,12,12,3,,,,,,,,,,,,,,,,,,,,,,,,,,,467.7265997,1397060648,1397060648,468.2387485,1397060649,469.0258969,4,0.786892733,0.5,470.7254705,,,,2014_Apr_09_1722,60.02212093,semact_fmri_builder,1,sz
2,object,trial_images_objects\r_spatula.png,n,n,spatula,32,,,,,,,,0,0,0,1,,,,,0,0,0,0,0,13,13,11,,,,,,,,,,,,,,,,,,,,,,,,,,,471.2252485,1397060651,1397060652,471.7334556,,,None,,3.5,474.2239463,,,,2014_Apr_09_1722,60.02212093,semact_fmri_builder,1,sz
2,,,,,,,,,,,,,,0,0,0,1,,,,,0,0,0,0,,,,,,,,,,,,,,,,,,,,,,,,,,,,,,,,,,,,,,,,,,,,2014_Apr_09_1722,60.02212093,semact_fmri_builder,1,sz
2,,,,,,,,,,,,,,0,0,0,1,,,,,,,,,,,,,,,,,,,,,,,,,,,,,,,,,,,,,,,,,,,,,,,,,,,,2014_Apr_09_1722,60.02212093,semact_fmri_builder,1,sz
3,animal,trial_images_animals\r_swan_bewick.png,n,n,,30,swan_bewick,,,,,,,0,1,1,2,,,,,,,,,,,,,0,0,0,0,,,,,0,0,0,4,,,,,,,,,,,,,,,483.7556089,1397060664,1397060664,484.2490051,,,None,,1.5,486.7361408,1397060661,480.7439132,1397060667,2014_Apr_09_1722,60.02212093,semact_fmri_builder,1,sz
3,object,trial_images_objects\r_lipstick.png,n,n,,48,lipstick,,,,,,,0,1,1,2,,,,,,,,,,,,,0,0,0,0,,,,,0,1,1,6,,,,,,,,,,,,,,,488.23562,1397060668,1397060669,488.7436159,,,None,,1.5,491.2342825,,,1397060671,2014_Apr_09_1722,60.02212093,semact_fmri_builder,1,sz
3,animal,trial_images_animals\r_ostrich.png,f,n,,24,ostrich,,,,,,,0,1,1,2,,,,,,,,,,,,,0,0,0,0,,,,,0,2,2,5,,,,,,,,,,,,,,,492.7338978,1397060673,1397060673,493.2455146,1397060674,494.1331149,4,0.88729427,3.5,495.7327041,,,1397060676,2014_Apr_09_1722,60.02212093,semact_fmri_builder,1,sz
3,object,trial_images_objects\r_eyelash_curlers.png,n,n,,43,eyelash_curlers,,,,,,,0,1,1,2,,,,,,,,,,,,,0,0,0,0,,,,,0,3,3,1,,,,,,,,,,,,,,,499.248133,1397060679,1397060680,499.7558259,,,None,,0.5,502.2468025,,,1397060682,2014_Apr_09_1722,60.02212093,semact_fmri_builder,1,sz
3,animal,trial_images_animals\r_cow_dairy.png,n,n,,9,cow_dairy,,,,,,,0,1,1,2,,,,,,,,,,,,,0,0,0,0,,,,,0,4,4,8,,,,,,,,,,,,,,,502.7467755,1397060683,1397060683,503.2603407,,,None,,2.5,505.745487,,,1397060686,2014_Apr_09_1722,60.02212093,semact_fmri_builder,1,sz
3,object,trial_images_objects\r_pepper_mill.png,n,n,,35,peppemill,,,,,,,0,1,1,2,,,,,,,,,,,,,0,0,0,0,,,,,0,5,5,10,,,,,,,,,,,,,,,508.244722,1397060688,1397060689,508.7531462,,,None,,0.5,511.2434256,,,1397060691,2014_Apr_09_1722,60.02212093,semact_fmri_builder,1,sz
3,object,trial_images_objects\r_axe.png,n,v,,34,axe,,,,,,,0,1,1,2,,,,,,,,,,,,,0,0,0,0,,,,,0,6,6,9,,,,,,,,,,,,,,,511.7433617,1397060692,1397060692,512.2515375,,,None,,1.5,514.7420683,,,1397060695,2014_Apr_09_1722,60.02212093,semact_fmri_builder,1,sz
3,animal,trial_images_animals\r_mole.png,n,n,,20,mole,,,,,,,0,1,1,2,,,,,,,,,,,,,0,0,0,0,,,,,0,7,7,12,,,,,,,,,,,,,,,516.241696,1397060696,1397060697,516.7518573,1397060698,518.3239431,4,1.57181415,2.5,519.2404367,,,1397060699,2014_Apr_09_1722,60.02212093,semact_fmri_builder,1,sz
3,animal,trial_images_animals\r_stoat.png,n,n,,29,stoat,,,,,,,0,1,1,2,,,,,,,,,,,,,0,0,0,0,,,,,0,8,8,7,,,,,,,,,,,,,,,521.7396023,1397060702,1397060702,522.2521243,1397060704,523.7218997,4,1.46950891,0.5,524.7383726,,,1397060705,2014_Apr_09_1722,60.02212093,semact_fmri_builder,1,sz
3,object,trial_images_objects\r_maracas.png,f,v,,60,maracas,,,,,,,0,1,1,2,,,,,,,,,,,,,0,0,0,0,,,,,0,9,9,0,,,,,,,,,,,,,,,525.2382638,1397060705,1397060706,525.7485011,1397060707,526.7707464,4,1.021968798,0.5,528.237054,,,1397060708,2014_Apr_09_1722,60.02212093,semact_fmri_builder,1,sz
3,animal,trial_images_animals\r_goat.png,n,n,,16,goat1,,,,,,,0,1,1,2,,,,,,,,,,,,,0,0,0,0,,,,,0,10,10,2,,,,,,,,,,,,,,,528.7369325,1397060709,1397060709,529.2481998,,,None,,1.5,531.7356464,,,1397060712,2014_Apr_09_1722,60.02212093,semact_fmri_builder,1,sz
3,object,trial_images_objects\r_paintbrush.png,n,v,,58,paintbrush,,,,,,,0,1,1,2,,,,,,,,,,,,,0,0,0,0,,,,,0,11,11,11,,,,,,,,,,,,,,,533.2352635,1397060713,1397060714,533.7455458,,,None,,1.5,536.233955,,,1397060716,2014_Apr_09_1722,60.02212093,semact_fmri_builder,1,sz
3,animal,trial_images_animals\r_horse.png,n,n,,21,horse,,,,,,,0,1,1,2,,,,,,,,,,,,,0,0,0,0,,,,,0,12,12,3,,,,,,,,,,,,,,,537.7335758,1397060718,1397060718,538.2452912,,,None,,2.5,540.7322377,,,1397060721,2014_Apr_09_1722,60.02212093,semact_fmri_builder,1,sz
3,object,trial_images_objects\r_chi_instrument.png,f,n,,31,chi_instrument,,,,,,,0,1,1,2,,,,,,,,,,,,,0,0,0,0,,,,,0,13,13,13,,,,,,,,,,,,,,,543.2481578,1397060723,1397060724,543.7571833,1397060725,544.6139929,4,0.856546163,3.5,546.2469076,,,1397060726,2014_Apr_09_1722,60.02212093,semact_fmri_builder,1,sz
3,,,,,,,,,,,,,,0,1,1,2,,,,,,,,,,,,,0,0,0,0,,,,,,,,,,,,,,,,,,,,,,,,,,,,,,,,,,,,2014_Apr_09_1722,60.02212093,semact_fmri_builder,1,sz
3,,,,,,,,,,,,,,0,1,1,2,,,,,,,,,,,,,,,,,,,,,,,,,,,,,,,,,,,,,,,,,,,,,,,,,,,,2014_Apr_09_1722,60.02212093,semact_fmri_builder,1,sz
1,animal,trial_images_animals\r_duck_white.png,n,n,,13,,duck_white,,,,,,0,2,2,0,0,0,0,0,,,,,,,,,,,,,,,,,,,,,0,0,0,13,,,,,,,,,,,555.7785122,1397060736,1397060736,556.2709766,,,None,,3.5,558.7588005,1397060733,552.754163,,2014_Apr_09_1722,60.02212093,semact_fmri_builder,1,sz
1,object,trial_images_objects\r_rolling_pin.png,n,n,,56,,rolling_pin,,,,,,0,2,2,0,0,0,0,0,,,,,,,,,,,,,,,,,,,,,0,1,1,6,,,,,,,,,,,562.2575242,1397060742,1397060743,562.7692067,,,None,,2.5,565.2562048,,,,2014_Apr_09_1722,60.02212093,semact_fmri_builder,1,sz
1,animal,trial_images_animals\r_sheep.png,n,n,,27,,sheep1,,,,,,0,2,2,0,0,0,0,0,,,,,,,,,,,,,,,,,,,,,0,2,2,4,,,,,,,,,,,567.7554462,1397060748,1397060748,568.2731679,,,None,,0.5,570.7541226,,,,2014_Apr_09_1722,60.02212093,semact_fmri_builder,1,sz
1,animal,trial_images_animals\r_badger.png,n,n,,1,,badger1,,,,,,0,2,2,0,0,0,0,0,,,,,,,,,,,,,,,,,,,,,0,3,3,10,,,,,,,,,,,571.2540769,1397060751,1397060752,571.768105,,,None,,0.5,574.2528318,,,,2014_Apr_09_1722,60.02212093,semact_fmri_builder,1,sz
1,object,trial_images_objects\r_corkscrew.png,n,n,,41,,corkscrew,,,,,,0,2,2,0,0,0,0,0,,,,,,,,,,,,,,,,,,,,,0,4,4,2,,,,,,,,,,,574.7527794,1397060755,1397060755,575.261232,,,None,,1.5,577.7514942,,,,2014_Apr_09_1722,60.02212093,semact_fmri_builder,1,sz
1,object,trial_images_objects\r_toothbrush.png,n,n,,38,,toothbrush,,,,,,0,2,2,0,0,0,0,0,,,,,,,,,,,,,,,,,,,,,0,5,5,8,,,,,,,,,,,579.2510853,1397060759,1397060760,579.7622086,,,None,,1.5,582.2498086,,,,2014_Apr_09_1722,60.02212093,semact_fmri_builder,1,sz
1,object,trial_images_objects\r_compass.png,n,n,,37,,compass,,,,,,0,2,2,0,0,0,0,0,,,,,,,,,,,,,,,,,,,,,0,6,6,12,,,,,,,,,,,583.7660504,1397060764,1397060764,584.2727173,,,None,,3.5,586.7647395,,,,2014_Apr_09_1722,60.02212093,semact_fmri_builder,1,sz
1,animal,trial_images_animals\r_fox_red.png,n,n,,14,,fox_red,,,,,,0,2,2,0,0,0,0,0,,,,,,,,,,,,,,,,,,,,,0,7,7,7,,,,,,,,,,,590.2636096,1397060770,1397060771,590.7749366,,,None,,2.5,593.2622929,,,,2014_Apr_09_1722,60.02212093,semact_fmri_builder,1,sz
1,object,trial_images_objects\r_pruning_shear.png,n,n,,45,,pruning_shear,,,,,,0,2,2,0,0,0,0,0,,,,,,,,,,,,,,,,,,,,,0,8,8,1,,,,,,,,,,,595.7615222,1397060776,1397060776,596.2703539,,,None,,3.5,598.7602216,,,,2014_Apr_09_1722,60.02212093,semact_fmri_builder,1,sz
1,animal,trial_images_animals\r_kangaroo_red.png,f,v,,23,,kangaroo_red,,,,,,0,2,2,0,0,0,0,0,,,,,,,,,,,,,,,,,,,,,0,9,9,9,,,,,,,,,,,602.2590717,1397060782,1397060783,602.7717965,1397060784,603.4751246,4,0.703023558,1.5,605.2578816,,,,2014_Apr_09_1722,60.02212093,semact_fmri_builder,1,sz
1,object,trial_images_objects\r_pen.png,n,n,,51,,pen1,,,,,,0,2,2,0,0,0,0,0,,,,,,,,,,,,,,,,,,,,,0,10,10,11,,,,,,,,,,,606.7573625,1397060787,1397060787,607.2668489,,,None,,1.5,609.7560607,,,,2014_Apr_09_1722,60.02212093,semact_fmri_builder,1,sz
1,object,trial_images_objects\r_iron.png,n,n,,39,,iron,,,,,,0,2,2,0,0,0,0,0,,,,,,,,,,,,,,,,,,,,,0,11,11,0,,,,,,,,,,,611.2556398,1397060791,1397060792,611.76653,,,None,,1.5,614.2543564,,,,2014_Apr_09_1722,60.02212093,semact_fmri_builder,1,sz
1,animal,trial_images_animals\r_springbok.png,f,n,,28,,springbok,,,,,,0,2,2,0,0,0,0,0,,,,,,,,,,,,,,,,,,,,,0,12,12,5,,,,,,,,,,,615.7539493,1397060796,1397060796,616.2653633,1397060797,617.1865934,4,0.92094698,2.5,618.7527601,,,,2014_Apr_09_1722,60.02212093,semact_fmri_builder,1,sz
1,object,trial_images_objects\r_staple_remover.png,n,n,,54,,staple_remover,,,,,,0,2,2,0,0,0,0,0,,,,,,,,,,,,,,,,,,,,,0,13,13,3,,,,,,,,,,,621.2518858,1397060801,1397060802,621.7606318,,,None,,2.5,624.2505795,,,,2014_Apr_09_1722,60.02212093,semact_fmri_builder,1,sz
1,,,,,,,,,,,,,,0,2,2,0,0,0,0,0,,,,,,,,,,,,,,,,,,,,,,,,,,,,,,,,,,,,,,,,,,,,,,,,2014_Apr_09_1722,60.02212093,semact_fmri_builder,1,sz
1,,,,,,,,,,,,,,0,2,2,0,,,,,,,,,,,,,,,,,,,,,,,,,,,,,,,,,,,,,,,,,,,,,,,,,,,,2014_Apr_09_1722,60.02212093,semact_fmri_builder,1,sz
4,object,trial_images_objects\r_pizza_slicer.png,n,n,,57,,,pizza_slicer,,,,,0,3,3,3,,,,,,,,,,,,,,,,,0,0,0,0,,,,,,,,,0,0,0,13,,,,,1397060810,629.7948154,632.7994085,1397060813,1397060813,633.2890365,,,None,,1.5,635.7798372,,,1397060816,2014_Apr_09_1722,60.02212093,semact_fmri_builder,1,sz
4,animal,trial_images_animals\r_cat_wild.png,n,n,,8,,,cat_wild,,,,,0,3,3,3,,,,,,,,,,,,,,,,,0,0,0,0,,,,,,,,,0,1,1,10,,,,,,,637.2792814,1397060817,1397060818,637.7891559,,,None,,1.5,640.2946514,,,1397060820,2014_Apr_09_1722,60.02212093,semact_fmri_builder,1,sz
4,animal,trial_images_animals\r_dragonfly.png,n,n,,12,,,dragonfly,,,,,0,3,3,3,,,,,,,,,,,,,,,,,0,0,0,0,,,,,,,,,0,2,2,6,,,,,,,641.7942416,1397060822,1397060822,642.3060042,1397060823,643.0435105,4,0.737198451,2.5,644.7930418,,,1397060825,2014_Apr_09_1722,60.02212093,semact_fmri_builder,1,sz
4,animal,trial_images_animals\r_bulldog_english.png,n,n,,5,,,bulldog_english,,,,,0,3,3,3,,,,,,,,,,,,,,,,,0,0,0,0,,,,,,,,,0,3,3,12,,,,,,,647.2921748,1397060827,1397060828,647.8061423,,,None,,1.5,650.2908563,,,1397060830,2014_Apr_09_1722,60.02212093,semact_fmri_builder,1,sz
4,animal,trial_images_animals\r_seal_grey.png,n,n,,26,,,seal_grey,,,,,0,3,3,3,,,,,,,,,,,,,,,,,0,0,0,0,,,,,,,,,0,4,4,8,,,,,,,651.790456,1397060832,1397060832,652.301195,,,None,,1.5,654.7891405,,,1397060835,2014_Apr_09_1722,60.02212093,semact_fmri_builder,1,sz
4,animal,trial_images_animals\r_owl.png,n,n,,25,,,owl2,,,,,0,3,3,3,,,,,,,,,,,,,,,,,0,0,0,0,,,,,,,,,0,5,5,3,,,,,,,656.2887583,1397060836,1397060837,656.7999666,1397060838,657.6213002,4,0.821046798,0.5,659.2875385,,,1397060839,2014_Apr_09_1722,60.02212093,semact_fmri_builder,1,sz
4,animal,trial_images_animals\r_harvest_mouse.png,n,n,,19,,,harvest_mouse,,,,,0,3,3,3,,,,,,,,,,,,,,,,,0,0,0,0,,,,,,,,,0,6,6,11,,,,,,,659.7874249,1397060840,1397060840,660.2985831,,,None,,2.5,662.7861239,,,1397060843,2014_Apr_09_1722,60.02212093,semact_fmri_builder,1,sz
4,animal,trial_images_animals\r_seagull_herring.png,n,n,,17,,,seagull_herring,,,,,0,3,3,3,,,,,,,,,,,,,,,,,0,0,0,0,,,,,,,,,0,7,7,7,,,,,,,665.2853755,1397060845,1397060846,665.7974275,1397060847,667.0510408,4,1.25332982,0.5,668.2841286,,,1397060848,2014_Apr_09_1722,60.02212093,semact_fmri_builder,1,sz
4,animal,trial_images_animals\r_camel.png,f,n,,7,,,camel,,,,,0,3,3,3,,,,,,,,,,,,,,,,,0,0,0,0,,,,,,,,,0,8,8,9,,,,,,,668.784034,1397060849,1397060849,669.2956619,,,None,,3.5,671.7827213,,,1397060852,2014_Apr_09_1722,60.02212093,semact_fmri_builder,1,sz
4,animal,trial_images_animals\r_squirrel_red.png,n,v,,22,,,squirrel_red,,,,,0,3,3,3,,,,,,,,,,,,,,,,,0,0,0,0,,,,,,,,,0,9,9,1,,,,,,,675.2816116,1397060855,1397060856,675.7934695,,,None,,3.5,678.2802898,,,1397060858,2014_Apr_09_1722,60.02212093,semact_fmri_builder,1,sz
4,object,trial_images_objects\r_pliers.png,n,n,,59,,,pliers,,,,,0,3,3,3,,,,,,,,,,,,,,,,,0,0,0,0,,,,,,,,,0,10,10,5,,,,,,,681.7791409,1397060862,1397060862,682.2908971,,,None,,1.5,684.7944762,,,1397060865,2014_Apr_09_1722,60.02212093,semact_fmri_builder,1,sz
4,animal,trial_images_animals\r_rabbit.png,n,v,,18,,,rabbit,,,,,0,3,3,3,,,,,,,,,,,,,,,,,0,0,0,0,,,,,,,,,0,11,11,0,,,,,,,686.2940906,1397060866,1397060867,686.8040179,1397060868,688.1431933,4,1.338887787,0.5,689.2928606,,,1397060869,2014_Apr_09_1722,60.02212093,semact_fmri_builder,1,sz
4,object,trial_images_objects\r_coping_saw.png,n,n,,40,,,coping_saw,,,,,0,3,3,3,,,,,,,,,,,,,,,,,0,0,0,0,,,,,,,,,0,12,12,2,,,,,,,689.7927454,1397060870,1397060870,690.3013205,,,None,,1.5,692.7914623,,,1397060873,2014_Apr_09_1722,60.02212093,semact_fmri_builder,1,sz
4,object,trial_images_objects\r_rasp.png,n,n,,47,,,rasp,,,,,0,3,3,3,,,,,,,,,,,,,,,,,0,0,0,0,,,,,,,,,0,13,13,4,,,,,,,694.2911066,1397060874,1397060875,694.7987834,,,None,,1.5,697.2897782,,,1397060877,2014_Apr_09_1722,60.02212093,semact_fmri_builder,1,sz
4,,,,,,,,,,,,,,0,3,3,3,,,,,,,,,,,,,,,,,0,0,0,0,,,,,,,,,,,,,,,,,,,,,,,,,,,,,,,,2014_Apr_09_1722,60.02212093,semact_fmri_builder,1,sz
4,,,,,,,,,,,,,,0,3,3,3,,,,,,,,,,,,,,,,,,,,,,,,,,,,,,,,,,,,,,,,,,,,,,,,,,,,2014_Apr_09_1722,60.02212093,semact_fmri_builder,1,sz
