selectBlock,category,paths,semantic,action,image3,number,image1,image2,image4,trigger_loop.thisRepN,trigger_loop.thisTrialN,trigger_loop.thisN,trigger_loop.thisIndex,blockSelectLoop.thisRepN,blockSelectLoop.thisTrialN,blockSelectLoop.thisN,blockSelectLoop.thisIndex,b1loop.thisRepN,b1loop.thisTrialN,b1loop.thisN,b1loop.thisIndex,b2loop.thisRepN,b2loop.thisTrialN,b2loop.thisN,b2loop.thisIndex,b3loop.thisRepN,b3loop.thisTrialN,b3loop.thisN,b3loop.thisIndex,b3_trialLoop.thisRepN,b3_trialLoop.thisTrialN,b3_trialLoop.thisN,b3_trialLoop.thisIndex,b4loop.thisRepN,b4loop.thisTrialN,b4loop.thisN,b4loop.thisIndex,b1_trialLoop.thisRepN,b1_trialLoop.thisTrialN,b1_trialLoop.thisN,b1_trialLoop.thisIndex,b2_trialLoop.thisRepN,b2_trialLoop.thisTrialN,b2_trialLoop.thisN,b2_trialLoop.thisIndex,b4_trialLoop.thisRepN,b4_trialLoop.thisTrialN,b4_trialLoop.thisN,b4_trialLoop.thisIndex,GenInstrAbsTime,GenInstrTime,triggerClock,triggerAbsClock,SemInstr_startAbstime,SemInstr_starttime,startFixAbstime,startFixtime,Img_startAbstime,Img_starttime,RespgetAbsTime,Respgettime,key_resp_2.keys,key_resp_2.rt,JitDur,startJitAbstime,startJittime,ActInstr_startAbstime,ActInstr_starttime,date,frameRate,expName,session,participant
,,,,,,,,,,0,0,0,0,,,,,,,,,,,,,,,,,,,,,,,,,,,,,,,,,,,,,1406740680,432.0597374,568.1599295,1406740816,,,,,,,,,,,,,,,,2014_Jul_30_1817,60.03776601,semact_fmri_builder,1,bw012
3,animal,trial_images_animals\r_cricket_green.png,n,v,cricket_green,10,,,,,,,,0,0,0,2,,,,,,,,,0,0,0,0,0,0,0,10,,,,,,,,,,,,,,,,,,,,,1406740816,568.1931052,1406740819,571.2036865,1406740820,571.7173476,1406740821,572.619275,3,0.901577363,2.5,1406740822,574.1857463,,,2014_Jul_30_1817,60.03776601,semact_fmri_builder,1,bw012
3,animal,trial_images_animals\r_butterfly.png,n,n,butterfly,6,,,,,,,,0,0,0,2,,,,,,,,,0,0,0,0,0,1,1,11,,,,,,,,,,,,,,,,,,,,,,,1406740825,576.6847369,1406740825,577.2183023,1406740827,578.9669339,3,1.748356624,1.5,1406740828,579.683554,,,2014_Jul_30_1817,60.03776601,semact_fmri_builder,1,bw012
3,animal,trial_images_animals\r_bat.png,n,n,bat,2,,,,,,,,0,0,0,2,,,,,,,,,0,0,0,0,0,2,2,7,,,,,,,,,,,,,,,,,,,,,,,1406740829,581.1830454,1406740830,581.6929105,,,None,,0.5,1406740832,584.1817568,,,2014_Jul_30_1817,60.03776601,semact_fmri_builder,1,bw012
3,object,trial_images_objects\r_pruning_shear.png,n,n,pruning_shear,45,,,,,,,,0,0,0,2,,,,,,,,,0,0,0,0,0,3,3,4,,,,,,,,,,,,,,,,,,,,,,,1406740833,584.6817463,1406740833,585.206893,,,None,,3.5,1406740836,587.6804556,,,2014_Jul_30_1817,60.03776601,semact_fmri_builder,1,bw012
3,animal,trial_images_animals\r_deer_roe.png,n,n,deer_roe,11,,,,,,,,0,0,0,2,,,,,,,,,0,0,0,0,0,4,4,2,,,,,,,,,,,,,,,,,,,,,,,1406740839,591.1960031,1406740840,591.7178287,,,None,,1.5,1406740842,594.1946605,,,2014_Jul_30_1817,60.03776601,semact_fmri_builder,1,bw012
3,object,trial_images_objects\r_iron.png,n,n,iron,39,,,,,,,,0,0,0,2,,,,,,,,,0,0,0,0,0,5,5,0,,,,,,,,,,,,,,,,,,,,,,,1406740844,595.6943023,1406740844,596.2255323,,,None,,2.5,1406740847,598.6929841,,,2014_Jul_30_1817,60.03776601,semact_fmri_builder,1,bw012
3,object,trial_images_objects\r_broom.png,n,n,broom,33,,,,,,,,0,0,0,2,,,,,,,,,0,0,0,0,0,6,6,13,,,,,,,,,,,,,,,,,,,,,,,1406740849,601.1922911,1406740850,601.7785329,,,None,,2.5,1406740852,604.1909431,,,2014_Jul_30_1817,60.03776601,semact_fmri_builder,1,bw012
3,object,trial_images_objects\r_pen.png,n,n,pen1,51,,,,,,,,0,0,0,2,,,,,,,,,0,0,0,0,0,7,7,8,,,,,,,,,,,,,,,,,,,,,,,1406740855,606.6901975,1406740855,607.1997508,,,None,,1.5,1406740858,609.688893,,,2014_Jul_30_1817,60.03776601,semact_fmri_builder,1,bw012
3,object,trial_images_objects\r_rolling_pin.png,n,n,rolling_pin,56,,,,,,,,0,0,0,2,,,,,,,,,0,0,0,0,0,8,8,3,,,,,,,,,,,,,,,,,,,,,,,1406740859,611.1884936,1406740860,611.7009829,,,None,,0.5,1406740862,614.1872488,,,2014_Jul_30_1817,60.03776601,semact_fmri_builder,1,bw012
3,animal,trial_images_animals\r_owl.png,n,n,owl2,25,,,,,,,,0,0,0,2,,,,,,,,,0,0,0,0,0,9,9,9,,,,,,,,,,,,,,,,,,,,,,,1406740863,614.6872051,1406740863,615.216503,,,None,,3.5,1406740866,617.6859542,,,2014_Jul_30_1817,60.03776601,semact_fmri_builder,1,bw012
3,object,trial_images_objects\r_rasp.png,n,n,rasp,47,,,,,,,,0,0,0,2,,,,,,,,,0,0,0,0,0,10,10,6,,,,,,,,,,,,,,,,,,,,,,,1406740869,621.1848247,1406740870,621.6934155,,,None,,1.5,1406740872,624.1834731,,,2014_Jul_30_1817,60.03776601,semact_fmri_builder,1,bw012
3,object,trial_images_objects\r_coping_saw.png,n,n,coping_saw,40,,,,,,,,0,0,0,2,,,,,,,,,0,0,0,0,0,11,11,5,,,,,,,,,,,,,,,,,,,,,,,1406740874,625.6831374,1406740874,626.1921012,,,None,,1.5,1406740877,628.6818386,,,2014_Jul_30_1817,60.03776601,semact_fmri_builder,1,bw012
3,animal,trial_images_animals\r_badger.png,n,n,badger1,1,,,,,,,,0,0,0,2,,,,,,,,,0,0,0,0,0,12,12,12,,,,,,,,,,,,,,,,,,,,,,,1406740878,630.1814785,1406740879,630.7156455,,,None,,0.5,1406740881,633.1803515,,,2014_Jul_30_1817,60.03776601,semact_fmri_builder,1,bw012
3,animal,trial_images_animals\r_ostrich.png,f,n,ostrich,24,,,,,,,,0,0,0,2,,,,,,,,,0,0,0,0,0,13,13,1,,,,,,,,,,,,,,,,,,,,,,,1406740882,633.680161,1406740882,634.2311317,1406740883,635.1292917,3,0.897895199,1.5,1406740885,636.695583,,,2014_Jul_30_1817,60.03776601,semact_fmri_builder,1,bw012
3,,,,,,,,,,,,,,0,0,0,2,,,,,,,,,0,0,0,0,,,,,,,,,,,,,,,,,,,,,,,,,,,,,,,,,,,,,,,,2014_Jul_30_1817,60.03776601,semact_fmri_builder,1,bw012
3,,,,,,,,,,,,,,0,0,0,2,,,,,,,,,,,,,,,,,,,,,,,,,,,,,,,,,,,,,,,,,,,,,,,,,,,,2014_Jul_30_1817,60.03776601,semact_fmri_builder,1,bw012
1,animal,trial_images_animals\r_dragonfly.png,n,n,,12,dragonfly,,,,,,,0,1,1,0,0,0,0,0,,,,,,,,,,,,,,,,,0,0,0,3,,,,,,,,,,,,,1406740889,641.2028845,1406740892,644.2264683,1406740893,644.7227318,,,None,,0.5,,647.2082697,,,2014_Jul_30_1817,60.03776601,semact_fmri_builder,1,bw012
1,animal,trial_images_animals\r_blackbird.png,n,n,,4,blackbird,,,,,,,0,1,1,0,0,0,0,0,,,,,,,,,,,,,,,,,0,1,1,12,,,,,,,,,,,,,,,1406740896,647.7081178,1406740896,648.220727,,,None,,0.5,,650.7067849,,,2014_Jul_30_1817,60.03776601,semact_fmri_builder,1,bw012
1,object,trial_images_objects\r_maracas.png,f,v,,60,maracas,,,,,,,0,1,1,0,0,0,0,0,,,,,,,,,,,,,,,,,0,2,2,1,,,,,,,,,,,,,,,1406740899,651.2068401,1406740900,651.7182648,1406740901,653.4225261,3,1.703948206,0.5,,654.2056678,,,2014_Jul_30_1817,60.03776601,semact_fmri_builder,1,bw012
1,object,trial_images_objects\r_colander.png,n,n,,36,colander,,,,,,,0,1,1,0,0,0,0,0,,,,,,,,,,,,,,,,,0,3,3,0,,,,,,,,,,,,,,,1406740903,654.7055117,1406740903,655.3191061,,,None,,3.5,,657.7042241,,,2014_Jul_30_1817,60.03776601,semact_fmri_builder,1,bw012
1,object,trial_images_objects\r_pepper_mill.png,n,n,,35,peppemill,,,,,,,0,1,1,0,0,0,0,0,,,,,,,,,,,,,,,,,0,4,4,2,,,,,,,,,,,,,,,1406740909,661.2031015,1406740910,661.7121695,,,None,,2.5,,664.2018432,,,2014_Jul_30_1817,60.03776601,semact_fmri_builder,1,bw012
1,animal,trial_images_animals\r_camel.png,f,n,,7,camel,,,,,,,0,1,1,0,0,0,0,0,,,,,,,,,,,,,,,,,0,5,5,8,,,,,,,,,,,,,,,1406740915,666.7010626,1406740915,667.2136847,1406740916,668.0670658,3,0.853096501,0.5,,669.6998498,,,2014_Jul_30_1817,60.03776601,semact_fmri_builder,1,bw012
1,animal,trial_images_animals\r_squirrel_red.png,n,v,,22,squirrel_red,,,,,,,0,1,1,0,0,0,0,0,,,,,,,,,,,,,,,,,0,6,6,11,,,,,,,,,,,,,,,1406740918,670.1997605,1406740919,670.7126856,,,None,,2.5,,673.2151142,,,2014_Jul_30_1817,60.03776601,semact_fmri_builder,1,bw012
1,object,trial_images_objects\r_toothbrush.png,n,n,,38,toothbrush,,,,,,,0,1,1,0,0,0,0,0,,,,,,,,,,,,,,,,,0,7,7,6,,,,,,,,,,,,,,,1406740924,675.7143814,1406740924,676.225893,,,None,,1.5,,678.7130735,,,2014_Jul_30_1817,60.03776601,semact_fmri_builder,1,bw012
1,animal,trial_images_animals\r_kangaroo_red.png,f,v,,23,kangaroo_red,,,,,,,0,1,1,0,0,0,0,0,,,,,,,,,,,,,,,,,0,8,8,5,,,,,,,,,,,,,,,1406740928,680.212717,1406740929,680.7250789,1406740930,681.745264,3,1.019913685,1.5,,683.2114958,,,2014_Jul_30_1817,60.03776601,semact_fmri_builder,1,bw012
1,object,trial_images_objects\r_wok.png,f,n,,44,wok,,,,,,,0,1,1,0,0,0,0,0,,,,,,,,,,,,,,,,,0,9,9,10,,,,,,,,,,,,,,,1406740933,684.7110213,1406740933,685.2220847,1406740935,687.5431422,3,2.320761135,1.5,,687.7098012,,,2014_Jul_30_1817,60.03776601,semact_fmri_builder,1,bw012
1,object,trial_images_objects\r_compass.png,n,n,,37,compass,,,,,,,0,1,1,0,0,0,0,0,,,,,,,,,,,,,,,,,0,10,10,9,,,,,,,,,,,,,,,1406740937,689.2093415,1406740938,689.7810886,,,None,,2.5,,692.2080487,,,2014_Jul_30_1817,60.03776601,semact_fmri_builder,1,bw012
1,object,trial_images_objects\r_paintbrush.png,n,v,,58,paintbrush,,,,,,,0,1,1,0,0,0,0,0,,,,,,,,,,,,,,,,,0,11,11,4,,,,,,,,,,,,,,,1406740943,694.7073038,1406740943,695.2190493,,,None,,1.5,,697.7060354,,,2014_Jul_30_1817,60.03776601,semact_fmri_builder,1,bw012
1,object,trial_images_objects\r_pliers.png,n,n,,59,pliers,,,,,,,0,1,1,0,0,0,0,0,,,,,,,,,,,,,,,,,0,12,12,7,,,,,,,,,,,,,,,1406740947,699.2056107,1406740948,699.7715866,,,None,,3.5,,702.2042999,,,2014_Jul_30_1817,60.03776601,semact_fmri_builder,1,bw012
1,object,trial_images_objects\r_knife_table.png,n,n,,42,knife_table,,,,,,,0,1,1,0,0,0,0,0,,,,,,,,,,,,,,,,,0,13,13,13,,,,,,,,,,,,,,,1406740954,705.7032123,1406740954,706.2125582,,,None,,3.5,,708.7018918,,,2014_Jul_30_1817,60.03776601,semact_fmri_builder,1,bw012
1,,,,,,,,,,,,,,0,1,1,0,0,0,0,0,,,,,,,,,,,,,,,,,,,,,,,,,,,,,,,,,,,,,,,,,,,,,,,,2014_Jul_30_1817,60.03776601,semact_fmri_builder,1,bw012
1,,,,,,,,,,,,,,0,1,1,0,,,,,,,,,,,,,,,,,,,,,,,,,,,,,,,,,,,,,,,,,,,,,,,,,,,,2014_Jul_30_1817,60.03776601,semact_fmri_builder,1,bw012
2,animal,trial_images_animals\r_swan_bewick.png,n,n,,30,,swan_bewick,,,,,,0,2,2,1,,,,,0,0,0,0,,,,,,,,,,,,,,,,,0,0,0,7,,,,,,,,,,,1406740966,718.2490231,1406740967,718.7439932,,,None,,0.5,,721.2306738,1406740963,715.2237233,2014_Jul_30_1817,60.03776601,semact_fmri_builder,1,bw012
2,animal,trial_images_animals\r_mole.png,n,n,,20,,mole,,,,,,0,2,2,1,,,,,0,0,0,0,,,,,,,,,,,,,,,,,0,1,1,11,,,,,,,,,,,1406740970,721.7305172,1406740970,722.2556376,,,None,,0.5,,724.7292594,,,2014_Jul_30_1817,60.03776601,semact_fmri_builder,1,bw012
2,animal,trial_images_animals\r_fox_red.png,n,n,,14,,fox_red,,,,,,0,2,2,1,,,,,0,0,0,0,,,,,,,,,,,,,,,,,0,2,2,5,,,,,,,,,,,1406740973,725.2292582,1406740974,725.7911792,,,None,,2.5,,728.2279579,,,2014_Jul_30_1817,60.03776601,semact_fmri_builder,1,bw012
2,animal,trial_images_animals\r_goat.png,n,n,,16,,goat1,,,,,,0,2,2,1,,,,,0,0,0,0,,,,,,,,,,,,,,,,,0,3,3,2,,,,,,,,,,,1406740979,730.7271828,1406740979,731.2399304,1406740980,732.3765333,3,1.136286228,1.5,,733.7260059,,,2014_Jul_30_1817,60.03776601,semact_fmri_builder,1,bw012
2,animal,trial_images_animals\r_cow_dairy.png,n,n,,9,,cow_dairy,,,,,,0,2,2,1,,,,,0,0,0,0,,,,,,,,,,,,,,,,,0,4,4,13,,,,,,,,,,,1406740983,735.2255317,1406740984,735.7399096,,,None,,1.5,,738.224209,,,2014_Jul_30_1817,60.03776601,semact_fmri_builder,1,bw012
2,object,trial_images_objects\r_axe.png,n,v,,34,,axe,,,,,,0,2,2,1,,,,,0,0,0,0,,,,,,,,,,,,,,,,,0,5,5,1,,,,,,,,,,,1406740988,739.7238788,1406740988,740.2325365,1406740990,741.8062069,3,1.573403606,0.5,,742.7226636,,,2014_Jul_30_1817,60.03776601,semact_fmri_builder,1,bw012
2,animal,trial_images_animals\r_harvest_mouse.png,n,n,,19,,harvest_mouse,,,,,,0,2,2,1,,,,,0,0,0,0,,,,,,,,,,,,,,,,,0,6,6,10,,,,,,,,,,,1406740991,743.2225474,1406740992,743.7350886,,,None,,3.5,,746.2212223,,,2014_Jul_30_1817,60.03776601,semact_fmri_builder,1,bw012
2,animal,trial_images_animals\r_rabbit.png,n,v,,18,,rabbit,,,,,,0,2,2,1,,,,,0,0,0,0,,,,,,,,,,,,,,,,,0,7,7,12,,,,,,,,,,,1406740998,749.7201462,1406740998,750.2300469,1406740999,751.3693096,3,1.13898801,0.5,,752.7189114,,,2014_Jul_30_1817,60.03776601,semact_fmri_builder,1,bw012
2,object,trial_images_objects\r_pasta_spoon.png,n,n,,50,,pasta_spoon,,,,,,0,2,2,1,,,,,0,0,0,0,,,,,,,,,,,,,,,,,0,8,8,4,,,,,,,,,,,1406741001,753.2188085,1406741002,753.7307713,,,None,,1.5,,756.2174514,,,2014_Jul_30_1817,60.03776601,semact_fmri_builder,1,bw012
2,object,trial_images_objects\r_spatula.png,n,n,,32,,spatula,,,,,,0,2,2,1,,,,,0,0,0,0,,,,,,,,,,,,,,,,,0,9,9,8,,,,,,,,,,,1406741006,757.7171495,1406741006,758.2256654,1406741008,759.799516,3,1.573583202,2.5,,760.7159428,,,2014_Jul_30_1817,60.03776601,semact_fmri_builder,1,bw012
2,animal,trial_images_animals\r_seagull_herring.png,n,n,,17,,seagull_herring,,,,,,0,2,2,1,,,,,0,0,0,0,,,,,,,,,,,,,,,,,0,10,10,0,,,,,,,,,,,1406741011,763.2317626,1406741012,763.7451233,,,None,,3.5,,766.2304411,,,2014_Jul_30_1817,60.03776601,semact_fmri_builder,1,bw012
2,object,trial_images_objects\r_staple_remover.png,n,n,,54,,staple_remover,,,,,,0,2,2,1,,,,,0,0,0,0,,,,,,,,,,,,,,,,,0,11,11,6,,,,,,,,,,,1406741018,769.7293138,1406741018,770.2394218,,,None,,0.5,,772.7280182,,,2014_Jul_30_1817,60.03776601,semact_fmri_builder,1,bw012
2,animal,trial_images_animals\r_cat_wild.png,n,n,,8,,cat_wild,,,,,,0,2,2,1,,,,,0,0,0,0,,,,,,,,,,,,,,,,,0,12,12,3,,,,,,,,,,,1406741021,773.2280276,1406741022,773.7391112,,,None,,0.5,,776.22672,,,2014_Jul_30_1817,60.03776601,semact_fmri_builder,1,bw012
2,object,trial_images_objects\r_eyelash_curlers.png,n,n,,43,,eyelash_curlers,,,,,,0,2,2,1,,,,,0,0,0,0,,,,,,,,,,,,,,,,,0,13,13,9,,,,,,,,,,,1406741025,776.7267128,1406741025,777.2346714,,,None,,0.5,,779.7254354,,,2014_Jul_30_1817,60.03776601,semact_fmri_builder,1,bw012
2,,,,,,,,,,,,,,0,2,2,1,,,,,0,0,0,0,,,,,,,,,,,,,,,,,,,,,,,,,,,,,,,,,,,,,,,,,,,,2014_Jul_30_1817,60.03776601,semact_fmri_builder,1,bw012
2,,,,,,,,,,,,,,0,2,2,1,,,,,,,,,,,,,,,,,,,,,,,,,,,,,,,,,,,,,,,,,,,,,,,,,,,,2014_Jul_30_1817,60.03776601,semact_fmri_builder,1,bw012
4,object,trial_images_objects\r_nail_file.png,n,n,,53,,,nail_file,,,,,0,3,3,3,,,,,,,,,,,,,,,,,0,0,0,0,,,,,,,,,0,0,0,6,,,,,,,1406741034,786.2569105,1406741035,786.7500672,,,None,,0.5,1406741037,789.2388052,1406741031,783.25026,2014_Jul_30_1817,60.03776601,semact_fmri_builder,1,bw012
4,object,trial_images_objects\r_chi_instrument.png,f,n,,31,,,chi_instrument,,,,,0,3,3,3,,,,,,,,,,,,,,,,,0,0,0,0,,,,,,,,,0,1,1,10,,,,,,,1406741038,789.7386286,1406741038,790.247251,,,None,,0.5,1406741041,792.7373774,,,2014_Jul_30_1817,60.03776601,semact_fmri_builder,1,bw012
4,animal,trial_images_animals\r_sheep.png,n,n,,27,,,sheep1,,,,,0,3,3,3,,,,,,,,,,,,,,,,,0,0,0,0,,,,,,,,,0,2,2,12,,,,,,,1406741041,793.2373596,1406741042,793.7497345,,,None,,0.5,1406741044,796.2360539,,,2014_Jul_30_1817,60.03776601,semact_fmri_builder,1,bw012
4,animal,trial_images_animals\r_seal_grey.png,n,n,,26,,,seal_grey,,,,,0,3,3,3,,,,,,,,,,,,,,,,,0,0,0,0,,,,,,,,,0,3,3,1,,,,,,,1406741045,796.736043,1406741045,797.2484786,,,None,,3.5,1406741048,799.7347774,,,2014_Jul_30_1817,60.03776601,semact_fmri_builder,1,bw012
4,animal,trial_images_animals\r_frog.png,n,v,,15,,,frog,,,,,0,3,3,3,,,,,,,,,,,,,,,,,0,0,0,0,,,,,,,,,0,4,4,4,,,,,,,1406741051,803.2502908,1406741052,803.7608625,1406741053,804.7328184,3,0.971648036,0.5,1406741054,806.2491182,,,2014_Jul_30_1817,60.03776601,semact_fmri_builder,1,bw012
4,object,trial_images_objects\r_cleaningbrush.png,n,n,,46,,,cleaningbrush,,,,,0,3,3,3,,,,,,,,,,,,,,,,,0,0,0,0,,,,,,,,,0,5,5,0,,,,,,,1406741055,806.7489896,1406741055,807.3075372,,,None,,2.5,1406741058,809.7477053,,,2014_Jul_30_1817,60.03776601,semact_fmri_builder,1,bw012
4,object,trial_images_objects\r_corkscrew.png,n,n,,41,,,corkscrew,,,,,0,3,3,3,,,,,,,,,,,,,,,,,0,0,0,0,,,,,,,,,0,6,6,3,,,,,,,1406741060,812.2469443,1406741061,812.7687089,,,None,,2.5,1406741063,815.245625,,,2014_Jul_30_1817,60.03776601,semact_fmri_builder,1,bw012
4,animal,trial_images_animals\r_duck_white.png,n,n,,13,,,duck_white,,,,,0,3,3,3,,,,,,,,,,,,,,,,,0,0,0,0,,,,,,,,,0,7,7,13,,,,,,,1406741066,817.7449268,1406741066,818.2581357,,,None,,3.5,1406741069,820.7436295,,,2014_Jul_30_1817,60.03776601,semact_fmri_builder,1,bw012
4,animal,trial_images_animals\r_bulldog_english.png,n,n,,5,,,bulldog_english,,,,,0,3,3,3,,,,,,,,,,,,,,,,,0,0,0,0,,,,,,,,,0,8,8,8,,,,,,,1406741072,824.2424873,1406741073,824.7574704,,,None,,0.5,1406741075,827.2411677,,,2014_Jul_30_1817,60.03776601,semact_fmri_builder,1,bw012
4,object,trial_images_objects\r_spanner.png,n,n,,55,,,spanner,,,,,0,3,3,3,,,,,,,,,,,,,,,,,0,0,0,0,,,,,,,,,0,9,9,2,,,,,,,1406741076,827.7411348,1406741076,828.2500617,,,None,,0.5,1406741079,830.7398746,,,2014_Jul_30_1817,60.03776601,semact_fmri_builder,1,bw012
4,animal,trial_images_animals\r_stoat.png,n,n,,29,,,stoat,,,,,0,3,3,3,,,,,,,,,,,,,,,,,0,0,0,0,,,,,,,,,0,10,10,5,,,,,,,1406741079,831.2398685,1406741080,831.7534559,,,None,,2.5,1406741082,834.2385921,,,2014_Jul_30_1817,60.03776601,semact_fmri_builder,1,bw012
4,object,trial_images_objects\r_pizza_slicer.png,n,n,,57,,,pizza_slicer,,,,,0,3,3,3,,,,,,,,,,,,,,,,,0,0,0,0,,,,,,,,,0,11,11,9,,,,,,,1406741085,836.7378501,1406741085,837.2453156,,,None,,1.5,1406741088,839.7365208,,,2014_Jul_30_1817,60.03776601,semact_fmri_builder,1,bw012
4,animal,trial_images_animals\r_bug_common.png,n,n,,3,,,bug_common,,,,,0,3,3,3,,,,,,,,,,,,,,,,,0,0,0,0,,,,,,,,,0,12,12,7,,,,,,,1406741089,841.2361411,1406741090,841.7492866,,,None,,1.5,1406741092,844.2348254,,,2014_Jul_30_1817,60.03776601,semact_fmri_builder,1,bw012
4,animal,trial_images_animals\r_horse.png,n,n,,21,,,horse,,,,,0,3,3,3,,,,,,,,,,,,,,,,,0,0,0,0,,,,,,,,,0,13,13,11,,,,,,,1406741094,845.7511076,1406741094,846.2668016,,,None,,0.5,1406741097,848.7498384,,,2014_Jul_30_1817,60.03776601,semact_fmri_builder,1,bw012
4,,,,,,,,,,,,,,0,3,3,3,,,,,,,,,,,,,,,,,0,0,0,0,,,,,,,,,,,,,,,,,,,,,,,,,,,,,,,,2014_Jul_30_1817,60.03776601,semact_fmri_builder,1,bw012
4,,,,,,,,,,,,,,0,3,3,3,,,,,,,,,,,,,,,,,,,,,,,,,,,,,,,,,,,,,,,,,,,,,,,,,,,,2014_Jul_30_1817,60.03776601,semact_fmri_builder,1,bw012
