selectBlock,category,paths,semantic,action,image3,number,image1,image2,image4,trigger_loop.thisRepN,trigger_loop.thisTrialN,trigger_loop.thisN,trigger_loop.thisIndex,blockSelectLoop.thisRepN,blockSelectLoop.thisTrialN,blockSelectLoop.thisN,blockSelectLoop.thisIndex,b1loop.thisRepN,b1loop.thisTrialN,b1loop.thisN,b1loop.thisIndex,b2loop.thisRepN,b2loop.thisTrialN,b2loop.thisN,b2loop.thisIndex,b3loop.thisRepN,b3loop.thisTrialN,b3loop.thisN,b3loop.thisIndex,b3_trialLoop.thisRepN,b3_trialLoop.thisTrialN,b3_trialLoop.thisN,b3_trialLoop.thisIndex,b4loop.thisRepN,b4loop.thisTrialN,b4loop.thisN,b4loop.thisIndex,b1_trialLoop.thisRepN,b1_trialLoop.thisTrialN,b1_trialLoop.thisN,b1_trialLoop.thisIndex,b2_trialLoop.thisRepN,b2_trialLoop.thisTrialN,b2_trialLoop.thisN,b2_trialLoop.thisIndex,b4_trialLoop.thisRepN,b4_trialLoop.thisTrialN,b4_trialLoop.thisN,b4_trialLoop.thisIndex,GenInstrAbsTime,GenInstrTime,triggerClock,triggerAbsClock,SemInstr_startAbstime,SemInstr_starttime,startFixAbstime,startFixtime,Img_startAbstime,Img_starttime,key_resp_2.keys,JitDur,startJitAbstime,startJittime,RespgetAbsTime,Respgettime,key_resp_2.rt,ActInstr_startAbstime,ActInstr_starttime,date,frameRate,expName,session,participant
,,,,,,,,,,0,0,0,0,,,,,,,,,,,,,,,,,,,,,,,,,,,,,,,,,,,,,1407169798,152.4571664,278.5441908,1407169924,,,,,,,,,,,,,,,,2014_Aug_04_1729,60.01626806,semact_fmri_builder,1,es013
3,object,trial_images_objects\r_rasp.png,n,n,rasp,47,,,,,,,,0,0,0,2,,,,,,,,,0,0,0,0,0,0,0,5,,,,,,,,,,,,,,,,,,,,,1407169924,278.593167,1407169927,281.6064714,1407169927,282.0984693,None,1.5,1407169930,284.5872269,,,,,,2014_Aug_04_1729,60.01626806,semact_fmri_builder,1,es013
3,object,trial_images_objects\r_pizza_slicer.png,n,n,pizza_slicer,57,,,,,,,,0,0,0,2,,,,,,,,,0,0,0,0,0,1,1,8,,,,,,,,,,,,,,,,,,,,,,,1407169931,286.0867066,1407169932,286.5941689,None,2.5,1407169934,289.0855124,,,,,,2014_Aug_04_1729,60.01626806,semact_fmri_builder,1,es013
3,animal,trial_images_animals\r_springbok.png,f,n,springbok,28,,,,,,,,0,0,0,2,,,,,,,,,0,0,0,0,0,2,2,10,,,,,,,,,,,,,,,,,,,,,,,1407169937,291.5847983,1407169937,292.1067162,None,3.5,1407169940,294.5835776,,,,,,2014_Aug_04_1729,60.01626806,semact_fmri_builder,1,es013
3,animal,trial_images_animals\r_cricket_green.png,n,v,cricket_green,10,,,,,,,,0,0,0,2,,,,,,,,,0,0,0,0,0,3,3,7,,,,,,,,,,,,,,,,,,,,,,,1407169943,298.0825664,1407169944,298.5958671,None,2.5,1407169946,301.0813481,,,,,,2014_Aug_04_1729,60.01626806,semact_fmri_builder,1,es013
3,object,trial_images_objects\r_corkscrew.png,n,n,corkscrew,41,,,,,,,,0,0,0,2,,,,,,,,,0,0,0,0,0,4,4,4,,,,,,,,,,,,,,,,,,,,,,,1407169949,303.5806578,1407169949,304.0885264,None,0.5,1407169952,306.5960796,,,,,,2014_Aug_04_1729,60.01626806,semact_fmri_builder,1,es013
3,animal,trial_images_animals\r_kangaroo_red.png,f,v,kangaroo_red,23,,,,,,,,0,0,0,2,,,,,,,,,0,0,0,0,0,5,5,9,,,,,,,,,,,,,,,,,,,,,,,1407169952,307.0960829,1407169953,307.6078499,3,0.5,1407169955,310.0950741,1407169954,308.5120556,0.903907743,,,2014_Aug_04_1729,60.01626806,semact_fmri_builder,1,es013
3,animal,trial_images_animals\r_bat.png,n,n,bat,2,,,,,,,,0,0,0,2,,,,,,,,,0,0,0,0,0,6,6,0,,,,,,,,,,,,,,,,,,,,,,,1407169956,310.5948764,1407169956,311.1047363,3,2.5,1407169959,313.593746,1407169957,312.0607514,0.955753099,,,2014_Aug_04_1729,60.01626806,semact_fmri_builder,1,es013
3,object,trial_images_objects\r_knife_table.png,n,n,knife_table,42,,,,,,,,0,0,0,2,,,,,,,,,0,0,0,0,0,7,7,11,,,,,,,,,,,,,,,,,,,,,,,1407169961,316.0929769,1407169962,316.6015497,None,2.5,1407169964,319.0917625,,,,,,2014_Aug_04_1729,60.01626806,semact_fmri_builder,1,es013
3,object,trial_images_objects\r_coping_saw.png,n,n,coping_saw,40,,,,,,,,0,0,0,2,,,,,,,,,0,0,0,0,0,8,8,2,,,,,,,,,,,,,,,,,,,,,,,1407169967,321.5910813,1407169967,322.0985384,None,1.5,1407169970,324.5898902,,,,,,2014_Aug_04_1729,60.01626806,semact_fmri_builder,1,es013
3,animal,trial_images_animals\r_deer_roe.png,n,n,deer_roe,11,,,,,,,,0,0,0,2,,,,,,,,,0,0,0,0,0,9,9,6,,,,,,,,,,,,,,,,,,,,,,,1407169971,326.0895071,1407169972,326.5992541,None,3.5,1407169974,329.0883036,,,,,,2014_Aug_04_1729,60.01626806,semact_fmri_builder,1,es013
3,animal,trial_images_animals\r_goat.png,n,n,goat1,16,,,,,,,,0,0,0,2,,,,,,,,,0,0,0,0,0,10,10,12,,,,,,,,,,,,,,,,,,,,,,,1407169978,332.5872885,1407169978,333.1006203,None,1.5,1407169981,335.5860319,,,,,,2014_Aug_04_1729,60.01626806,semact_fmri_builder,1,es013
3,animal,trial_images_animals\r_bug_common.png,n,n,bug_common,3,,,,,,,,0,0,0,2,,,,,,,,,0,0,0,0,0,11,11,13,,,,,,,,,,,,,,,,,,,,,,,1407169982,337.085775,1407169983,337.5974551,None,3.5,1407169985,340.0844934,,,,,,2014_Aug_04_1729,60.01626806,semact_fmri_builder,1,es013
3,object,trial_images_objects\r_pruning_shear.png,n,n,pruning_shear,45,,,,,,,,0,0,0,2,,,,,,,,,0,0,0,0,0,12,12,3,,,,,,,,,,,,,,,,,,,,,,,1407169989,343.5834759,1407169989,344.0920203,None,1.5,1407169992,346.5823651,,,,,,2014_Aug_04_1729,60.01626806,semact_fmri_builder,1,es013
3,object,trial_images_objects\r_pasta_spoon.png,n,n,pasta_spoon,50,,,,,,,,0,0,0,2,,,,,,,,,0,0,0,0,0,13,13,1,,,,,,,,,,,,,,,,,,,,,,,1407169993,348.0819108,1407169994,348.5922198,None,2.5,1407169996,351.0806856,,,,,,2014_Aug_04_1729,60.01626806,semact_fmri_builder,1,es013
3,,,,,,,,,,,,,,0,0,0,2,,,,,,,,,0,0,0,0,,,,,,,,,,,,,,,,,,,,,,,,,,,,,,,,,,,,,,,,2014_Aug_04_1729,60.01626806,semact_fmri_builder,1,es013
3,,,,,,,,,,,,,,0,0,0,2,,,,,,,,,,,,,,,,,,,,,,,,,,,,,,,,,,,,,,,,,,,,,,,,,,,,2014_Aug_04_1729,60.01626806,semact_fmri_builder,1,es013
1,animal,trial_images_animals\r_cow_dairy.png,n,n,,9,cow_dairy,,,,,,,0,1,1,0,0,0,0,0,,,,,,,,,,,,,,,,,0,0,0,2,,,,,,,,,,,,,1407170002,356.6050264,1407170005,359.6292115,1407170005,360.1255989,None,0.5,,362.6100437,,,,,,2014_Aug_04_1729,60.01626806,semact_fmri_builder,1,es013
1,animal,trial_images_animals\r_duck_white.png,n,n,,13,duck_white,,,,,,,0,1,1,0,0,0,0,0,,,,,,,,,,,,,,,,,0,1,1,12,,,,,,,,,,,,,,,1407170008,363.1098979,1407170009,363.6211319,None,2.5,,366.1087238,,,,,,2014_Aug_04_1729,60.01626806,semact_fmri_builder,1,es013
1,animal,trial_images_animals\r_seal_grey.png,n,n,,26,seal_grey,,,,,,,0,1,1,0,0,0,0,0,,,,,,,,,,,,,,,,,0,2,2,9,,,,,,,,,,,,,,,1407170014,368.608031,1407170014,369.1252425,3,3.5,,371.6069368,1407170016,370.8904534,1.764897024,,,2014_Aug_04_1729,60.01626806,semact_fmri_builder,1,es013
1,object,trial_images_objects\r_axe.png,n,v,,34,axe,,,,,,,0,1,1,0,0,0,0,0,,,,,,,,,,,,,,,,,0,3,3,11,,,,,,,,,,,,,,,1407170020,375.1057874,1407170021,375.6137067,None,2.5,,378.10456,,,,,,2014_Aug_04_1729,60.01626806,semact_fmri_builder,1,es013
1,object,trial_images_objects\r_paintbrush.png,n,v,,58,paintbrush,,,,,,,0,1,1,0,0,0,0,0,,,,,,,,,,,,,,,,,0,4,4,4,,,,,,,,,,,,,,,1407170026,380.6038564,1407170026,381.1139138,None,1.5,,383.6027339,,,,,,2014_Aug_04_1729,60.01626806,semact_fmri_builder,1,es013
1,animal,trial_images_animals\r_badger.png,n,n,,1,badger1,,,,,,,0,1,1,0,0,0,0,0,,,,,,,,,,,,,,,,,0,5,5,1,,,,,,,,,,,,,,,1407170030,385.1023469,1407170031,385.6203881,None,1.5,,388.1011286,,,,,,2014_Aug_04_1729,60.01626806,semact_fmri_builder,1,es013
1,object,trial_images_objects\r_maracas.png,f,v,,60,maracas,,,,,,,0,1,1,0,0,0,0,0,,,,,,,,,,,,,,,,,0,6,6,7,,,,,,,,,,,,,,,1407170035,389.6174309,1407170035,390.1278314,None,0.5,,392.6162455,,,,,,2014_Aug_04_1729,60.01626806,semact_fmri_builder,1,es013
1,animal,trial_images_animals\r_horse.png,n,n,,21,horse,,,,,,,0,1,1,0,0,0,0,0,,,,,,,,,,,,,,,,,0,7,7,10,,,,,,,,,,,,,,,1407170038,393.1162392,1407170039,393.6281565,None,2.5,,396.1149738,,,,,,2014_Aug_04_1729,60.01626806,semact_fmri_builder,1,es013
1,animal,trial_images_animals\r_butterfly.png,n,n,,6,butterfly,,,,,,,0,1,1,0,0,0,0,0,,,,,,,,,,,,,,,,,0,8,8,6,,,,,,,,,,,,,,,1407170044,398.6143176,1407170044,399.1275549,None,1.5,,401.6131631,,,,,,2014_Aug_04_1729,60.01626806,semact_fmri_builder,1,es013
1,animal,trial_images_animals\r_mole.png,n,n,,20,mole,,,,,,,0,1,1,0,0,0,0,0,,,,,,,,,,,,,,,,,0,9,9,13,,,,,,,,,,,,,,,1407170048,403.1127293,1407170049,403.6233121,None,3.5,,406.1115965,,,,,,2014_Aug_04_1729,60.01626806,semact_fmri_builder,1,es013
1,object,trial_images_objects\r_broom.png,n,n,,33,broom,,,,,,,0,1,1,0,0,0,0,0,,,,,,,,,,,,,,,,,0,10,10,0,,,,,,,,,,,,,,,1407170055,409.6105255,1407170055,410.1172993,None,0.5,,412.6092961,,,,,,2014_Aug_04_1729,60.01626806,semact_fmri_builder,1,es013
1,object,trial_images_objects\r_nail_file.png,n,n,,53,nail_file,,,,,,,0,1,1,0,0,0,0,0,,,,,,,,,,,,,,,,,0,11,11,8,,,,,,,,,,,,,,,1407170058,413.1092598,1407170059,413.6182393,None,1.5,,416.1080793,,,,,,2014_Aug_04_1729,60.01626806,semact_fmri_builder,1,es013
1,object,trial_images_objects\r_compass.png,n,n,,37,compass,,,,,,,0,1,1,0,0,0,0,0,,,,,,,,,,,,,,,,,0,12,12,3,,,,,,,,,,,,,,,1407170063,417.6077446,1407170063,418.1142521,None,0.5,,420.6065094,,,,,,2014_Aug_04_1729,60.01626806,semact_fmri_builder,1,es013
1,animal,trial_images_animals\r_harvest_mouse.png,n,n,,19,harvest_mouse,,,,,,,0,1,1,0,0,0,0,0,,,,,,,,,,,,,,,,,0,13,13,5,,,,,,,,,,,,,,,1407170066,421.1065266,1407170067,421.6176621,None,0.5,,424.1052914,,,,,,2014_Aug_04_1729,60.01626806,semact_fmri_builder,1,es013
1,,,,,,,,,,,,,,0,1,1,0,0,0,0,0,,,,,,,,,,,,,,,,,,,,,,,,,,,,,,,,,,,,,,,,,,,,,,,,2014_Aug_04_1729,60.01626806,semact_fmri_builder,1,es013
1,,,,,,,,,,,,,,0,1,1,0,,,,,,,,,,,,,,,,,,,,,,,,,,,,,,,,,,,,,,,,,,,,,,,,,,,,2014_Aug_04_1729,60.01626806,semact_fmri_builder,1,es013
2,object,trial_images_objects\r_eyelash_curlers.png,n,n,,43,,eyelash_curlers,,,,,,0,2,2,1,,,,,0,0,0,0,,,,,,,,,,,,,,,,,0,0,0,1,,,,,,,,,,,1407170076,430.6369283,1407170076,431.1276742,None,0.5,,433.6188351,,,,1407170073,427.6261133,2014_Aug_04_1729,60.01626806,semact_fmri_builder,1,es013
2,object,trial_images_objects\r_pepper_mill.png,n,n,,35,,peppemill,,,,,,0,2,2,1,,,,,0,0,0,0,,,,,,,,,,,,,,,,,0,1,1,10,,,,,,,,,,,1407170079,434.118686,1407170080,434.6274435,None,1.5,,437.1341377,,,,,,2014_Aug_04_1729,60.01626806,semact_fmri_builder,1,es013
2,object,trial_images_objects\r_pliers.png,n,n,,59,,pliers,,,,,,0,2,2,1,,,,,0,0,0,0,,,,,,,,,,,,,,,,,0,2,2,2,,,,,,,,,,,1407170084,438.6338053,1407170084,439.1455198,None,0.5,,441.6325611,,,,,,2014_Aug_04_1729,60.01626806,semact_fmri_builder,1,es013
2,object,trial_images_objects\r_lipstick.png,n,n,,48,,lipstick,,,,,,0,2,2,1,,,,,0,0,0,0,,,,,,,,,,,,,,,,,0,3,3,3,,,,,,,,,,,1407170087,442.132578,1407170088,442.6577646,None,0.5,,445.1313616,,,,,,2014_Aug_04_1729,60.01626806,semact_fmri_builder,1,es013
2,animal,trial_images_animals\r_fox_red.png,n,n,,14,,fox_red,,,,,,0,2,2,1,,,,,0,0,0,0,,,,,,,,,,,,,,,,,0,4,4,6,,,,,,,,,,,1407170091,445.6314675,1407170091,446.1424926,None,0.5,,448.6301982,,,,,,2014_Aug_04_1729,60.01626806,semact_fmri_builder,1,es013
2,object,trial_images_objects\r_spanner.png,n,n,,55,,spanner,,,,,,0,2,2,1,,,,,0,0,0,0,,,,,,,,,,,,,,,,,0,5,5,8,,,,,,,,,,,1407170094,449.1301738,1407170095,449.6375126,None,1.5,,452.1289492,,,,,,2014_Aug_04_1729,60.01626806,semact_fmri_builder,1,es013
2,animal,trial_images_animals\r_swan_bewick.png,n,n,,30,,swan_bewick,,,,,,0,2,2,1,,,,,0,0,0,0,,,,,,,,,,,,,,,,,0,6,6,0,,,,,,,,,,,1407170099,453.6286313,1407170099,454.1408864,None,0.5,,456.6274119,,,,,,2014_Aug_04_1729,60.01626806,semact_fmri_builder,1,es013
2,animal,trial_images_animals\r_owl.png,n,n,,25,,owl2,,,,,,0,2,2,1,,,,,0,0,0,0,,,,,,,,,,,,,,,,,0,7,7,9,,,,,,,,,,,1407170102,457.1274146,1407170103,457.6386071,3,0.5,,460.1263089,1407170105,459.609817,1.970835308,,,2014_Aug_04_1729,60.01626806,semact_fmri_builder,1,es013
2,animal,trial_images_animals\r_rabbit.png,n,v,,18,,rabbit,,,,,,0,2,2,1,,,,,0,0,0,0,,,,,,,,,,,,,,,,,0,8,8,7,,,,,,,,,,,1407170106,460.6261824,1407170106,461.1354827,3,0.5,,463.6250251,1407170109,463.3417174,2.205966356,,,2014_Aug_04_1729,60.01626806,semact_fmri_builder,1,es013
2,object,trial_images_objects\r_rolling_pin.png,n,n,,56,,rolling_pin,,,,,,0,2,2,1,,,,,0,0,0,0,,,,,,,,,,,,,,,,,0,9,9,4,,,,,,,,,,,1407170109,464.1249352,1407170110,464.6362748,None,1.5,,467.1237682,,,,,,2014_Aug_04_1729,60.01626806,semact_fmri_builder,1,es013
2,animal,trial_images_animals\r_stoat.png,n,n,,29,,stoat,,,,,,0,2,2,1,,,,,0,0,0,0,,,,,,,,,,,,,,,,,0,10,10,5,,,,,,,,,,,1407170114,468.6234093,1407170114,469.1362754,None,1.5,,471.6222122,,,,,,2014_Aug_04_1729,60.01626806,semact_fmri_builder,1,es013
2,object,trial_images_objects\r_kettle.png,n,n,,49,,kettle,,,,,,0,2,2,1,,,,,0,0,0,0,,,,,,,,,,,,,,,,,0,11,11,12,,,,,,,,,,,1407170118,473.1218548,1407170119,473.6418967,3,3.5,,476.1207618,1407170120,474.8877443,1.245590433,,,2014_Aug_04_1729,60.01626806,semact_fmri_builder,1,es013
2,animal,trial_images_animals\r_dragonfly.png,n,n,,12,,dragonfly,,,,,,0,2,2,1,,,,,0,0,0,0,,,,,,,,,,,,,,,,,0,12,12,11,,,,,,,,,,,1407170125,479.6196558,1407170125,480.1313259,None,2.5,,482.6184267,,,,,,2014_Aug_04_1729,60.01626806,semact_fmri_builder,1,es013
2,object,trial_images_objects\r_spatula.png,n,n,,32,,spatula,,,,,,0,2,2,1,,,,,0,0,0,0,,,,,,,,,,,,,,,,,0,13,13,13,,,,,,,,,,,1407170130,485.1343752,1407170131,485.6421741,None,1.5,,488.1331621,,,,,,2014_Aug_04_1729,60.01626806,semact_fmri_builder,1,es013
2,,,,,,,,,,,,,,0,2,2,1,,,,,0,0,0,0,,,,,,,,,,,,,,,,,,,,,,,,,,,,,,,,,,,,,,,,,,,,2014_Aug_04_1729,60.01626806,semact_fmri_builder,1,es013
2,,,,,,,,,,,,,,0,2,2,1,,,,,,,,,,,,,,,,,,,,,,,,,,,,,,,,,,,,,,,,,,,,,,,,,,,,2014_Aug_04_1729,60.01626806,semact_fmri_builder,1,es013
4,object,trial_images_objects\r_wok.png,f,n,,44,,,wok,,,,,0,3,3,3,,,,,,,,,,,,,,,,,0,0,0,0,,,,,,,,,0,0,0,2,,,,,,,1407170141,495.6654002,1407170141,496.1565904,None,0.5,1407170144,498.6464758,,,,1407170138,492.6561878,2014_Aug_04_1729,60.01626806,semact_fmri_builder,1,es013
4,animal,trial_images_animals\r_seagull_herring.png,n,n,,17,,,seagull_herring,,,,,0,3,3,3,,,,,,,,,,,,,,,,,0,0,0,0,,,,,,,,,0,1,1,1,,,,,,,1407170144,499.1462844,1407170145,499.6583511,None,1.5,1407170147,502.1451217,,,,,,2014_Aug_04_1729,60.01626806,semact_fmri_builder,1,es013
4,animal,trial_images_animals\r_frog.png,n,v,,15,,,frog,,,,,0,3,3,3,,,,,,,,,,,,,,,,,0,0,0,0,,,,,,,,,0,2,2,12,,,,,,,1407170149,503.6447658,1407170149,504.154977,3,2.5,1407170152,506.6436758,1407170150,505.0107006,0.855428913,,,2014_Aug_04_1729,60.01626806,semact_fmri_builder,1,es013
4,object,trial_images_objects\r_iron.png,n,n,,39,,,iron,,,,,0,3,3,3,,,,,,,,,,,,,,,,,0,0,0,0,,,,,,,,,0,3,3,0,,,,,,,1407170154,509.1428913,1407170155,509.6533676,None,0.5,1407170157,512.1416791,,,,,,2014_Aug_04_1729,60.01626806,semact_fmri_builder,1,es013
4,object,trial_images_objects\r_cleaningbrush.png,n,n,,46,,,cleaningbrush,,,,,0,3,3,3,,,,,,,,,,,,,,,,,0,0,0,0,,,,,,,,,0,4,4,10,,,,,,,1407170158,512.6583034,1407170158,513.1684706,None,2.5,1407170161,515.6570818,,,,,,2014_Aug_04_1729,60.01626806,semact_fmri_builder,1,es013
4,object,trial_images_objects\r_toothbrush.png,n,n,,38,,,toothbrush,,,,,0,3,3,3,,,,,,,,,,,,,,,,,0,0,0,0,,,,,,,,,0,5,5,9,,,,,,,1407170163,518.1564268,1407170164,518.6667166,None,0.5,1407170166,521.1552318,,,,,,2014_Aug_04_1729,60.01626806,semact_fmri_builder,1,es013
4,animal,trial_images_animals\r_blackbird.png,n,n,,4,,,blackbird,,,,,0,3,3,3,,,,,,,,,,,,,,,,,0,0,0,0,,,,,,,,,0,6,6,13,,,,,,,1407170167,521.6551941,1407170167,522.1668778,None,2.5,1407170170,524.6540078,,,,,,2014_Aug_04_1729,60.01626806,semact_fmri_builder,1,es013
4,animal,trial_images_animals\r_bulldog_english.png,n,n,,5,,,bulldog_english,,,,,0,3,3,3,,,,,,,,,,,,,,,,,0,0,0,0,,,,,,,,,0,7,7,3,,,,,,,1407170172,527.1533181,1407170173,527.6668977,None,1.5,1407170175,530.1520829,,,,,,2014_Aug_04_1729,60.01626806,semact_fmri_builder,1,es013
4,object,trial_images_objects\r_staple_remover.png,n,n,,54,,,staple_remover,,,,,0,3,3,3,,,,,,,,,,,,,,,,,0,0,0,0,,,,,,,,,0,8,8,7,,,,,,,1407170177,531.6517581,1407170177,532.1612706,3,0.5,1407170180,534.6506075,1407170179,533.9506884,1.789148815,,,2014_Aug_04_1729,60.01626806,semact_fmri_builder,1,es013
4,object,trial_images_objects\r_chi_instrument.png,f,n,,31,,,chi_instrument,,,,,0,3,3,3,,,,,,,,,,,,,,,,,0,0,0,0,,,,,,,,,0,9,9,8,,,,,,,1407170180,535.150522,1407170181,535.6581208,None,1.5,1407170183,538.1492953,,,,,,2014_Aug_04_1729,60.01626806,semact_fmri_builder,1,es013
4,animal,trial_images_animals\r_cat_wild.png,n,n,,8,,,cat_wild,,,,,0,3,3,3,,,,,,,,,,,,,,,,,0,0,0,0,,,,,,,,,0,10,10,6,,,,,,,1407170185,539.6489947,1407170185,540.1587272,None,2.5,1407170188,542.6477797,,,,,,2014_Aug_04_1729,60.01626806,semact_fmri_builder,1,es013
4,animal,trial_images_animals\r_sheep.png,n,n,,27,,,sheep1,,,,,0,3,3,3,,,,,,,,,,,,,,,,,0,0,0,0,,,,,,,,,0,11,11,4,,,,,,,1407170190,545.1471238,1407170191,545.6579611,None,3.5,1407170193,548.1458893,,,,,,2014_Aug_04_1729,60.01626806,semact_fmri_builder,1,es013
4,object,trial_images_objects\r_pitchfork.png,n,n,,52,,,pitchfork,,,,,0,3,3,3,,,,,,,,,,,,,,,,,0,0,0,0,,,,,,,,,0,12,12,5,,,,,,,1407170197,551.6448569,1407170197,552.1545351,None,0.5,1407170200,554.6436384,,,,,,2014_Aug_04_1729,60.01626806,semact_fmri_builder,1,es013
4,animal,trial_images_animals\r_camel.png,f,n,,7,,,camel,,,,,0,3,3,3,,,,,,,,,,,,,,,,,0,0,0,0,,,,,,,,,0,13,13,11,,,,,,,1407170200,555.143696,1407170201,555.6554799,None,1.5,1407170203,558.1424092,,,,,,2014_Aug_04_1729,60.01626806,semact_fmri_builder,1,es013
4,,,,,,,,,,,,,,0,3,3,3,,,,,,,,,,,,,,,,,0,0,0,0,,,,,,,,,,,,,,,,,,,,,,,,,,,,,,,,2014_Aug_04_1729,60.01626806,semact_fmri_builder,1,es013
4,,,,,,,,,,,,,,0,3,3,3,,,,,,,,,,,,,,,,,,,,,,,,,,,,,,,,,,,,,,,,,,,,,,,,,,,,2014_Aug_04_1729,60.01626806,semact_fmri_builder,1,es013
