selectBlock,category,paths,semantic,action,image1,number,image2,image3,image4,trigger_loop.thisRepN,trigger_loop.thisTrialN,trigger_loop.thisN,trigger_loop.thisIndex,blockSelectLoop.thisRepN,blockSelectLoop.thisTrialN,blockSelectLoop.thisN,blockSelectLoop.thisIndex,b1loop.thisRepN,b1loop.thisTrialN,b1loop.thisN,b1loop.thisIndex,b1_trialLoop.thisRepN,b1_trialLoop.thisTrialN,b1_trialLoop.thisN,b1_trialLoop.thisIndex,b2loop.thisRepN,b2loop.thisTrialN,b2loop.thisN,b2loop.thisIndex,b3loop.thisRepN,b3loop.thisTrialN,b3loop.thisN,b3loop.thisIndex,b4loop.thisRepN,b4loop.thisTrialN,b4loop.thisN,b4loop.thisIndex,b2_trialLoop.thisRepN,b2_trialLoop.thisTrialN,b2_trialLoop.thisN,b2_trialLoop.thisIndex,b3_trialLoop.thisRepN,b3_trialLoop.thisTrialN,b3_trialLoop.thisN,b3_trialLoop.thisIndex,b4_trialLoop.thisRepN,b4_trialLoop.thisTrialN,b4_trialLoop.thisN,b4_trialLoop.thisIndex,GenInstrAbsTime,GenInstrTime,triggerClock,triggerAbsClock,SemInstr_startAbstime,SemInstr_starttime,startFixtime,startFixAbstime,Img_startAbstime,Img_starttime,key_resp_2.keys,JitDur,startJittime,RespgetAbsTime,Respgettime,key_resp_2.rt,ActInstr_startAbstime,ActInstr_starttime,startJitAbstime,date,frameRate,expName,session,participant
,,,,,,,,,,0,0,0,0,,,,,,,,,,,,,,,,,,,,,,,,,,,,,,,,,,,,,1407436780,29.16370146,90.99197051,1407436842,,,,,,,,,,,,,,,,2014_Aug_07_1939,60.02335323,semact_fmri_builder,1,sh015
1,object,trial_images_objects\r_pliers.png,n,n,pliers,59,,,,,,,,0,0,0,0,0,0,0,0,0,0,0,7,,,,,,,,,,,,,,,,,,,,,,,,,,,,,1407436842,91.01431134,94.03696488,1407436845,1407436846,94.53430131,None,1.5,97.0189693,,,,,,,2014_Aug_07_1939,60.02335323,semact_fmri_builder,1,sh015
1,object,trial_images_objects\r_pepper_mill.png,n,n,peppemill,35,,,,,,,,0,0,0,0,0,0,0,0,0,1,1,11,,,,,,,,,,,,,,,,,,,,,,,,,,,,,,,98.51844969,1407436850,1407436850,99.02594115,3,2.5,101.5172272,1407436851,100.2342977,1.20805231,,,,2014_Aug_07_1939,60.02335323,semact_fmri_builder,1,sh015
1,object,trial_images_objects\r_pizza_slicer.png,n,n,pizza_slicer,57,,,,,,,,0,0,0,0,0,0,0,0,0,2,2,6,,,,,,,,,,,,,,,,,,,,,,,,,,,,,,,104.0163506,1407436855,1407436856,104.5229471,None,0.5,107.0150164,,,,,,,2014_Aug_07_1939,60.02335323,semact_fmri_builder,1,sh015
1,object,trial_images_objects\r_compass.png,n,n,compass,37,,,,,,,,0,0,0,0,0,0,0,0,0,3,3,4,,,,,,,,,,,,,,,,,,,,,,,,,,,,,,,107.5150154,1407436859,1407436859,108.020908,None,0.5,110.5136797,,,,,,,2014_Aug_07_1939,60.02335323,semact_fmri_builder,1,sh015
1,animal,trial_images_animals\r_dragonfly.png,n,n,dragonfly,12,,,,,,,,0,0,0,0,0,0,0,0,0,4,4,8,,,,,,,,,,,,,,,,,,,,,,,,,,,,,,,111.0136826,1407436862,1407436863,111.5250811,None,0.5,114.0124128,,,,,,,2014_Aug_07_1939,60.02335323,semact_fmri_builder,1,sh015
1,object,trial_images_objects\r_toothbrush.png,n,n,toothbrush,38,,,,,,,,0,0,0,0,0,0,0,0,0,5,5,12,,,,,,,,,,,,,,,,,,,,,,,,,,,,,,,114.512284,1407436866,1407436866,115.0246801,None,1.5,117.5109825,,,,,,,2014_Aug_07_1939,60.02335323,semact_fmri_builder,1,sh015
1,animal,trial_images_animals\r_cow_dairy.png,n,n,cow_dairy,9,,,,,,,,0,0,0,0,0,0,0,0,0,6,6,9,,,,,,,,,,,,,,,,,,,,,,,,,,,,,,,119.0106057,1407436870,1407436871,119.5248514,None,0.5,122.0259185,,,,,,,2014_Aug_07_1939,60.02335323,semact_fmri_builder,1,sh015
1,object,trial_images_objects\r_lipstick.png,n,n,lipstick,48,,,,,,,,0,0,0,0,0,0,0,0,0,7,7,3,,,,,,,,,,,,,,,,,,,,,,,,,,,,,,,122.5259033,1407436874,1407436874,123.0327615,None,3.5,125.5245655,,,,,,,2014_Aug_07_1939,60.02335323,semact_fmri_builder,1,sh015
1,object,trial_images_objects\r_pitchfork.png,n,n,pitchfork,52,,,,,,,,0,0,0,0,0,0,0,0,0,8,8,2,,,,,,,,,,,,,,,,,,,,,,,,,,,,,,,129.0234628,1407436880,1407436881,129.5315069,None,2.5,132.0220619,,,,,,,2014_Aug_07_1939,60.02335323,semact_fmri_builder,1,sh015
1,animal,trial_images_animals\r_owl.png,n,n,owl2,25,,,,,,,,0,0,0,0,0,0,0,0,0,9,9,13,,,,,,,,,,,,,,,,,,,,,,,,,,,,,,,134.5213027,1407436886,1407436886,135.0321056,None,1.5,137.5199912,,,,,,,2014_Aug_07_1939,60.02335323,semact_fmri_builder,1,sh015
1,animal,trial_images_animals\r_springbok.png,f,n,springbok,28,,,,,,,,0,0,0,0,0,0,0,0,0,10,10,5,,,,,,,,,,,,,,,,,,,,,,,,,,,,,,,139.0196044,1407436890,1407436891,139.5312585,None,1.5,142.0182515,,,,,,,2014_Aug_07_1939,60.02335323,semact_fmri_builder,1,sh015
1,animal,trial_images_animals\r_badger.png,n,n,badger1,1,,,,,,,,0,0,0,0,0,0,0,0,0,11,11,0,,,,,,,,,,,,,,,,,,,,,,,,,,,,,,,143.5178176,1407436895,1407436895,144.0312016,None,1.5,146.5164847,,,,,,,2014_Aug_07_1939,60.02335323,semact_fmri_builder,1,sh015
1,object,trial_images_objects\r_colander.png,n,n,colander,36,,,,,,,,0,0,0,0,0,0,0,0,0,12,12,1,,,,,,,,,,,,,,,,,,,,,,,,,,,,,,,148.0160855,1407436899,1407436900,148.5272178,None,1.5,151.0147943,,,,,,,2014_Aug_07_1939,60.02335323,semact_fmri_builder,1,sh015
1,animal,trial_images_animals\r_bulldog_english.png,n,n,bulldog_english,5,,,,,,,,0,0,0,0,0,0,0,0,0,13,13,10,,,,,,,,,,,,,,,,,,,,,,,,,,,,,,,152.5143885,1407436904,1407436904,153.0284624,None,1.5,155.5130531,,,,,,,2014_Aug_07_1939,60.02335323,semact_fmri_builder,1,sh015
1,,,,,,,,,,,,,,0,0,0,0,0,0,0,0,,,,,,,,,,,,,,,,,,,,,,,,,,,,,,,,,,,,,,,,,,,,,,,,2014_Aug_07_1939,60.02335323,semact_fmri_builder,1,sh015
1,,,,,,,,,,,,,,0,0,0,0,,,,,,,,,,,,,,,,,,,,,,,,,,,,,,,,,,,,,,,,,,,,,,,,,,,,2014_Aug_07_1939,60.02335323,semact_fmri_builder,1,sh015
2,animal,trial_images_animals\r_cat_wild.png,n,n,,8,cat_wild,,,,,,,0,1,1,1,,,,,,,,,0,0,0,0,,,,,,,,,0,0,0,13,,,,,,,,,,,,,,,163.0432763,1407436914,1407436915,163.5373565,None,3.5,166.0257984,,,,1407436911,160.0322426,,2014_Aug_07_1939,60.02335323,semact_fmri_builder,1,sh015
2,animal,trial_images_animals\r_sheep.png,n,n,,27,sheep1,,,,,,,0,1,1,1,,,,,,,,,0,0,0,0,,,,,,,,,0,1,1,10,,,,,,,,,,,,,,,169.5244967,1407436921,1407436921,170.0577636,None,1.5,172.5398334,,,,,,,2014_Aug_07_1939,60.02335323,semact_fmri_builder,1,sh015
2,animal,trial_images_animals\r_camel.png,f,n,,7,camel,,,,,,,0,1,1,1,,,,,,,,,0,0,0,0,,,,,,,,,0,2,2,7,,,,,,,,,,,,,,,174.0394333,1407436925,1407436926,174.5529187,None,3.5,177.0380901,,,,,,,2014_Aug_07_1939,60.02335323,semact_fmri_builder,1,sh015
2,object,trial_images_objects\r_spanner.png,n,n,,55,spanner,,,,,,,0,1,1,1,,,,,,,,,0,0,0,0,,,,,,,,,0,3,3,9,,,,,,,,,,,,,,,180.5369466,1407436932,1407436932,181.0448975,None,1.5,183.5355992,,,,,,,2014_Aug_07_1939,60.02335323,semact_fmri_builder,1,sh015
2,object,trial_images_objects\r_nail_file.png,n,n,,53,nail_file,,,,,,,0,1,1,1,,,,,,,,,0,0,0,0,,,,,,,,,0,4,4,8,,,,,,,,,,,,,,,185.0351837,1407436936,1407436937,185.5455125,None,1.5,188.0338662,,,,,,,2014_Aug_07_1939,60.02335323,semact_fmri_builder,1,sh015
2,object,trial_images_objects\r_broom.png,n,n,,33,broom,,,,,,,0,1,1,1,,,,,,,,,0,0,0,0,,,,,,,,,0,5,5,12,,,,,,,,,,,,,,,189.5334607,1407436941,1407436941,190.0393868,None,0.5,192.5321432,,,,,,,2014_Aug_07_1939,60.02335323,semact_fmri_builder,1,sh015
2,object,trial_images_objects\r_paintbrush.png,n,v,,58,paintbrush,,,,,,,0,1,1,1,,,,,,,,,0,0,0,0,,,,,,,,,0,6,6,6,,,,,,,,,,,,,,,193.0321225,1407436944,1407436945,193.5414205,3,0.5,196.0309511,1407436946,195.0812276,1.539486278,,,,2014_Aug_07_1939,60.02335323,semact_fmri_builder,1,sh015
2,object,trial_images_objects\r_pruning_shear.png,n,n,,45,pruning_shear,,,,,,,0,1,1,1,,,,,,,,,0,0,0,0,,,,,,,,,0,7,7,4,,,,,,,,,,,,,,,196.5307985,1407436948,1407436948,197.0402069,None,2.5,199.5294689,,,,,,,2014_Aug_07_1939,60.02335323,semact_fmri_builder,1,sh015
2,animal,trial_images_animals\r_rabbit.png,n,v,,18,rabbit,,,,,,,0,1,1,1,,,,,,,,,0,0,0,0,,,,,,,,,0,8,8,1,,,,,,,,,,,,,,,202.0286779,1407436953,1407436954,202.5379599,3,2.5,205.0273867,1407436955,203.9943906,1.456156089,,,,2014_Aug_07_1939,60.02335323,semact_fmri_builder,1,sh015
2,object,trial_images_objects\r_rolling_pin.png,n,n,,56,rolling_pin,,,,,,,0,1,1,1,,,,,,,,,0,0,0,0,,,,,,,,,0,9,9,5,,,,,,,,,,,,,,,207.5265411,1407436959,1407436959,208.0381188,None,0.5,210.5252425,,,,,,,2014_Aug_07_1939,60.02335323,semact_fmri_builder,1,sh015
2,object,trial_images_objects\r_knife_table.png,n,n,,42,knife_table,,,,,,,0,1,1,1,,,,,,,,,0,0,0,0,,,,,,,,,0,10,10,0,,,,,,,,,,,,,,,211.0251929,1407436962,1407436963,211.5340511,None,1.5,214.0405151,,,,,,,2014_Aug_07_1939,60.02335323,semact_fmri_builder,1,sh015
2,object,trial_images_objects\r_cleaningbrush.png,n,n,,46,cleaningbrush,,,,,,,0,1,1,1,,,,,,,,,0,0,0,0,,,,,,,,,0,11,11,3,,,,,,,,,,,,,,,215.5401343,1407436967,1407436967,216.0525687,None,1.5,218.5388216,,,,,,,2014_Aug_07_1939,60.02335323,semact_fmri_builder,1,sh015
2,object,trial_images_objects\r_wok.png,f,n,,44,wok,,,,,,,0,1,1,1,,,,,,,,,0,0,0,0,,,,,,,,,0,12,12,2,,,,,,,,,,,,,,,220.0383729,1407436971,1407436972,220.5494376,None,0.5,223.0370699,,,,,,,2014_Aug_07_1939,60.02335323,semact_fmri_builder,1,sh015
2,object,trial_images_objects\r_kettle.png,n,n,,49,kettle,,,,,,,0,1,1,1,,,,,,,,,0,0,0,0,,,,,,,,,0,13,13,11,,,,,,,,,,,,,,,223.5370429,1407436975,1407436975,224.0465633,None,0.5,226.535739,,,,,,,2014_Aug_07_1939,60.02335323,semact_fmri_builder,1,sh015
2,,,,,,,,,,,,,,0,1,1,1,,,,,,,,,0,0,0,0,,,,,,,,,,,,,,,,,,,,,,,,,,,,,,,,,,,,,,,,2014_Aug_07_1939,60.02335323,semact_fmri_builder,1,sh015
2,,,,,,,,,,,,,,0,1,1,1,,,,,,,,,,,,,,,,,,,,,,,,,,,,,,,,,,,,,,,,,,,,,,,,,,,,2014_Aug_07_1939,60.02335323,semact_fmri_builder,1,sh015
3,animal,trial_images_animals\r_fox_red.png,n,n,,14,,fox_red,,,,,,0,2,2,2,,,,,,,,,,,,,0,0,0,0,,,,,,,,,0,0,0,11,,,,,,,,,1407436981,230.0565131,233.0666298,1407436984,1407436985,233.5614975,None,1.5,236.0490471,,,,,,1407436987,2014_Aug_07_1939,60.02335323,semact_fmri_builder,1,sh015
3,object,trial_images_objects\r_iron.png,n,n,,39,,iron,,,,,,0,2,2,2,,,,,,,,,,,,,0,0,0,0,,,,,,,,,0,1,1,5,,,,,,,,,,,237.5484705,1407436989,1407436989,238.0584083,None,3.5,240.5471173,,,,,,1407436992,2014_Aug_07_1939,60.02335323,semact_fmri_builder,1,sh015
3,object,trial_images_objects\r_coping_saw.png,n,n,,40,,coping_saw,,,,,,0,2,2,2,,,,,,,,,,,,,0,0,0,0,,,,,,,,,0,2,2,13,,,,,,,,,,,244.0459772,1407436995,1407436996,244.5529467,None,3.5,247.061277,,,,,,1407436998,2014_Aug_07_1939,60.02335323,semact_fmri_builder,1,sh015
3,animal,trial_images_animals\r_butterfly.png,n,n,,6,,butterfly,,,,,,0,2,2,2,,,,,,,,,,,,,0,0,0,0,,,,,,,,,0,3,3,8,,,,,,,,,,,250.5601507,1407437002,1407437002,251.0732838,None,1.5,253.5588018,,,,,,1407437005,2014_Aug_07_1939,60.02335323,semact_fmri_builder,1,sh015
3,object,trial_images_objects\r_axe.png,n,v,,34,,axe,,,,,,0,2,2,2,,,,,,,,,,,,,0,0,0,0,,,,,,,,,0,4,4,9,,,,,,,,,,,255.0583905,1407437006,1407437007,255.5654594,None,0.5,258.0570718,,,,,,1407437009,2014_Aug_07_1939,60.02335323,semact_fmri_builder,1,sh015
3,object,trial_images_objects\r_pasta_spoon.png,n,n,,50,,pasta_spoon,,,,,,0,2,2,2,,,,,,,,,,,,,0,0,0,0,,,,,,,,,0,5,5,3,,,,,,,,,,,258.5570457,1407437010,1407437010,259.0678915,None,0.5,261.555704,,,,,,1407437013,2014_Aug_07_1939,60.02335323,semact_fmri_builder,1,sh015
3,animal,trial_images_animals\r_bat.png,n,n,,2,,bat,,,,,,0,2,2,2,,,,,,,,,,,,,0,0,0,0,,,,,,,,,0,6,6,1,,,,,,,,,,,262.0556776,1407437013,1407437014,262.5676825,None,1.5,265.0543673,,,,,,1407437016,2014_Aug_07_1939,60.02335323,semact_fmri_builder,1,sh015
3,object,trial_images_objects\r_maracas.png,f,v,,60,,maracas,,,,,,0,2,2,2,,,,,,,,,,,,,0,0,0,0,,,,,,,,,0,7,7,6,,,,,,,,,,,266.55395,1407437018,1407437018,267.0636289,3,1.5,269.5527264,1407437020,268.6196493,1.555696178,,,1407437021,2014_Aug_07_1939,60.02335323,semact_fmri_builder,1,sh015
3,animal,trial_images_animals\r_mole.png,n,n,,20,,mole,,,,,,0,2,2,2,,,,,,,,,,,,,0,0,0,0,,,,,,,,,0,8,8,7,,,,,,,,,,,271.0522587,1407437022,1407437023,271.5616689,None,2.5,274.050933,,,,,,1407437025,2014_Aug_07_1939,60.02335323,semact_fmri_builder,1,sh015
3,animal,trial_images_animals\r_horse.png,n,n,,21,,horse,,,,,,0,2,2,2,,,,,,,,,,,,,0,0,0,0,,,,,,,,,0,9,9,0,,,,,,,,,,,276.5501375,1407437028,1407437028,277.0640938,None,2.5,279.548823,,,,,,1407437031,2014_Aug_07_1939,60.02335323,semact_fmri_builder,1,sh015
3,animal,trial_images_animals\r_harvest_mouse.png,n,n,,19,,harvest_mouse,,,,,,0,2,2,2,,,,,,,,,,,,,0,0,0,0,,,,,,,,,0,10,10,4,,,,,,,,,,,282.0480713,1407437033,1407437034,282.5593572,None,1.5,285.046685,,,,,,1407437036,2014_Aug_07_1939,60.02335323,semact_fmri_builder,1,sh015
3,animal,trial_images_animals\r_blackbird.png,n,n,,4,,blackbird,,,,,,0,2,2,2,,,,,,,,,,,,,0,0,0,0,,,,,,,,,0,11,11,2,,,,,,,,,,,286.5462936,1407437038,1407437038,287.0592197,None,2.5,289.5616273,,,,,,1407437041,2014_Aug_07_1939,60.02335323,semact_fmri_builder,1,sh015
3,animal,trial_images_animals\r_duck_white.png,n,n,,13,,duck_white,,,,,,0,2,2,2,,,,,,,,,,,,,0,0,0,0,,,,,,,,,0,12,12,10,,,,,,,,,,,292.0608572,1407437043,1407437044,292.5721648,None,1.5,295.0594995,,,,,,1407437046,2014_Aug_07_1939,60.02335323,semact_fmri_builder,1,sh015
3,animal,trial_images_animals\r_cricket_green.png,n,v,,10,,cricket_green,,,,,,0,2,2,2,,,,,,,,,,,,,0,0,0,0,,,,,,,,,0,13,13,12,,,,,,,,,,,296.5591785,1407437048,1407437048,297.0714,None,2.5,299.5577755,,,,,,1407437051,2014_Aug_07_1939,60.02335323,semact_fmri_builder,1,sh015
3,,,,,,,,,,,,,,0,2,2,2,,,,,,,,,,,,,0,0,0,0,,,,,,,,,,,,,,,,,,,,,,,,,,,,,,,,,,,,2014_Aug_07_1939,60.02335323,semact_fmri_builder,1,sh015
3,,,,,,,,,,,,,,0,2,2,2,,,,,,,,,,,,,,,,,,,,,,,,,,,,,,,,,,,,,,,,,,,,,,,,,,,,2014_Aug_07_1939,60.02335323,semact_fmri_builder,1,sh015
4,object,trial_images_objects\r_eyelash_curlers.png,n,n,,43,,,eyelash_curlers,,,,,0,3,3,3,,,,,,,,,,,,,,,,,0,0,0,0,,,,,,,,,0,0,0,4,,,,,,,308.0880944,1407437059,1407437060,308.5777663,None,3.5,311.0701815,,,,1407437056,305.0755213,1407437062,2014_Aug_07_1939,60.02335323,semact_fmri_builder,1,sh015
4,animal,trial_images_animals\r_deer_roe.png,n,n,,11,,,deer_roe,,,,,0,3,3,3,,,,,,,,,,,,,,,,,0,0,0,0,,,,,,,,,0,1,1,12,,,,,,,314.5688886,1407437066,1407437066,315.078218,None,1.5,317.5675711,,,,,,1407437069,2014_Aug_07_1939,60.02335323,semact_fmri_builder,1,sh015
4,animal,trial_images_animals\r_goat.png,n,n,,16,,,goat1,,,,,0,3,3,3,,,,,,,,,,,,,,,,,0,0,0,0,,,,,,,,,0,2,2,8,,,,,,,319.0671251,1407437070,1407437071,319.580085,None,3.5,322.0657865,,,,,,1407437073,2014_Aug_07_1939,60.02335323,semact_fmri_builder,1,sh015
4,animal,trial_images_animals\r_frog.png,n,v,,15,,,frog,,,,,0,3,3,3,,,,,,,,,,,,,,,,,0,0,0,0,,,,,,,,,0,3,3,7,,,,,,,325.5646457,1407437077,1407437077,326.0736173,3,1.5,328.5634441,1407437078,326.9971639,0.92323901,,,1407437080,2014_Aug_07_1939,60.02335323,semact_fmri_builder,1,sh015
4,animal,trial_images_animals\r_bug_common.png,n,n,,3,,,bug_common,,,,,0,3,3,3,,,,,,,,,,,,,,,,,0,0,0,0,,,,,,,,,0,4,4,3,,,,,,,330.0629036,1407437081,1407437082,330.5745109,None,2.5,333.0615855,,,,,,1407437084,2014_Aug_07_1939,60.02335323,semact_fmri_builder,1,sh015
4,animal,trial_images_animals\r_kangaroo_red.png,f,v,,23,,,kangaroo_red,,,,,0,3,3,3,,,,,,,,,,,,,,,,,0,0,0,0,,,,,,,,,0,5,5,13,,,,,,,335.5774644,1407437087,1407437087,336.090456,3,0.5,338.5762722,1407437088,337.2432267,1.152496335,,,1407437090,2014_Aug_07_1939,60.02335323,semact_fmri_builder,1,sh015
4,animal,trial_images_animals\r_ostrich.png,f,n,,24,,,ostrich,,,,,0,3,3,3,,,,,,,,,,,,,,,,,0,0,0,0,,,,,,,,,0,6,6,0,,,,,,,339.0761766,1407437090,1407437091,339.5894586,None,2.5,342.0747788,,,,,,1407437093,2014_Aug_07_1939,60.02335323,semact_fmri_builder,1,sh015
4,animal,trial_images_animals\r_swan_bewick.png,n,n,,30,,,swan_bewick,,,,,0,3,3,3,,,,,,,,,,,,,,,,,0,0,0,0,,,,,,,,,0,7,7,11,,,,,,,344.5740144,1407437096,1407437096,345.0867117,None,0.5,347.5726561,,,,,,1407437099,2014_Aug_07_1939,60.02335323,semact_fmri_builder,1,sh015
4,object,trial_images_objects\r_spatula.png,n,n,,32,,,spatula,,,,,0,3,3,3,,,,,,,,,,,,,,,,,0,0,0,0,,,,,,,,,0,8,8,2,,,,,,,348.0726334,1407437099,1407437100,348.5794469,3,2.5,351.0714031,1407437101,350.0549288,1.475174591,,,1407437102,2014_Aug_07_1939,60.02335323,semact_fmri_builder,1,sh015
4,object,trial_images_objects\r_chi_instrument.png,f,n,,31,,,chi_instrument,,,,,0,3,3,3,,,,,,,,,,,,,,,,,0,0,0,0,,,,,,,,,0,9,9,6,,,,,,,353.5705623,1407437105,1407437105,354.0780429,None,1.5,356.5692007,,,,,,1407437108,2014_Aug_07_1939,60.02335323,semact_fmri_builder,1,sh015
4,animal,trial_images_animals\r_seal_grey.png,n,n,,26,,,seal_grey,,,,,0,3,3,3,,,,,,,,,,,,,,,,,0,0,0,0,,,,,,,,,0,10,10,10,,,,,,,358.0688157,1407437109,1407437110,358.5794113,None,1.5,361.06749,,,,,,1407437112,2014_Aug_07_1939,60.02335323,semact_fmri_builder,1,sh015
4,object,trial_images_objects\r_corkscrew.png,n,n,,41,,,corkscrew,,,,,0,3,3,3,,,,,,,,,,,,,,,,,0,0,0,0,,,,,,,,,0,11,11,9,,,,,,,362.5671358,1407437114,1407437114,363.0757845,3,2.5,365.5658292,1407437116,364.8493099,1.773233139,,,1407437117,2014_Aug_07_1939,60.02335323,semact_fmri_builder,1,sh015
4,animal,trial_images_animals\r_stoat.png,n,n,,29,,,stoat,,,,,0,3,3,3,,,,,,,,,,,,,,,,,0,0,0,0,,,,,,,,,0,12,12,5,,,,,,,368.0649957,1407437119,1407437120,368.5773413,None,3.5,371.0636974,,,,,,1407437122,2014_Aug_07_1939,60.02335323,semact_fmri_builder,1,sh015
4,animal,trial_images_animals\r_seagull_herring.png,n,n,,17,,,seagull_herring,,,,,0,3,3,3,,,,,,,,,,,,,,,,,0,0,0,0,,,,,,,,,0,13,13,1,,,,,,,374.5624981,1407437126,1407437126,375.0749599,None,2.5,377.5611564,,,,,,1407437129,2014_Aug_07_1939,60.02335323,semact_fmri_builder,1,sh015
4,,,,,,,,,,,,,,0,3,3,3,,,,,,,,,,,,,,,,,0,0,0,0,,,,,,,,,,,,,,,,,,,,,,,,,,,,,,,,2014_Aug_07_1939,60.02335323,semact_fmri_builder,1,sh015
4,,,,,,,,,,,,,,0,3,3,3,,,,,,,,,,,,,,,,,,,,,,,,,,,,,,,,,,,,,,,,,,,,,,,,,,,,2014_Aug_07_1939,60.02335323,semact_fmri_builder,1,sh015
