selectBlock,category,paths,semantic,action,image1,number,image3,image4,image2,trigger_loop.thisRepN,trigger_loop.thisTrialN,trigger_loop.thisN,trigger_loop.thisIndex,blockSelectLoop.thisRepN,blockSelectLoop.thisTrialN,blockSelectLoop.thisN,blockSelectLoop.thisIndex,b1loop.thisRepN,b1loop.thisTrialN,b1loop.thisN,b1loop.thisIndex,b1_trialLoop.thisRepN,b1_trialLoop.thisTrialN,b1_trialLoop.thisN,b1_trialLoop.thisIndex,b2loop.thisRepN,b2loop.thisTrialN,b2loop.thisN,b2loop.thisIndex,b3loop.thisRepN,b3loop.thisTrialN,b3loop.thisN,b3loop.thisIndex,b4loop.thisRepN,b4loop.thisTrialN,b4loop.thisN,b4loop.thisIndex,b3_trialLoop.thisRepN,b3_trialLoop.thisTrialN,b3_trialLoop.thisN,b3_trialLoop.thisIndex,b4_trialLoop.thisRepN,b4_trialLoop.thisTrialN,b4_trialLoop.thisN,b4_trialLoop.thisIndex,b2_trialLoop.thisRepN,b2_trialLoop.thisTrialN,b2_trialLoop.thisN,b2_trialLoop.thisIndex,GenInstrAbsTime,GenInstrTime,triggerClock,triggerAbsClock,SemInstr_startAbstime,SemInstr_starttime,startFixtime,startFixAbstime,Img_startAbstime,Img_starttime,RespgetAbsTime,Respgettime,key_resp_2.keys,key_resp_2.rt,JitDur,startJittime,startJitAbstime,ActInstr_startAbstime,ActInstr_starttime,date,frameRate,expName,session,participant
,,,,,,,,,,0,0,0,0,,,,,,,,,,,,,,,,,,,,,,,,,,,,,,,,,,,,,1411118889,95.42946174,138.0424634,1411118932,,,,,,,,,,,,,,,,2014_Sep_19_1028,60.02221188,semact_fmri_builder,1,WE018
1,object,trial_images_objects\r_wok.png,f,n,wok,44,,,,,,,,0,0,0,0,0,0,0,0,0,0,0,5,,,,,,,,,,,,,,,,,,,,,,,,,,,,,1411118932,138.0763288,141.0971247,1411118935,1411118935,141.592358,1411118936,142.4791495,3,0.886370771,0.5,144.078756,,,,2014_Sep_19_1028,60.02221188,semact_fmri_builder,1,WE018
1,object,trial_images_objects\r_pizza_slicer.png,n,n,pizza_slicer,57,,,,,,,,0,0,0,0,0,0,0,0,0,1,1,7,,,,,,,,,,,,,,,,,,,,,,,,,,,,,,,144.5784919,1411118938,1411118939,145.0855589,1411118940,146.1943958,3,1.108569114,0.5,147.5773267,,,,2014_Sep_19_1028,60.02221188,semact_fmri_builder,1,WE018
1,animal,trial_images_animals\r_rabbit.png,n,v,rabbit,18,,,,,,,,0,0,0,0,0,0,0,0,0,2,2,9,,,,,,,,,,,,,,,,,,,,,,,,,,,,,,,148.0772268,1411118942,1411118942,148.5866966,,,None,,1.5,151.0759633,,,,2014_Sep_19_1028,60.02221188,semact_fmri_builder,1,WE018
1,animal,trial_images_animals\r_sheep.png,n,n,sheep1,27,,,,,,,,0,0,0,0,0,0,0,0,0,3,3,1,,,,,,,,,,,,,,,,,,,,,,,,,,,,,,,152.5755727,1411118946,1411118947,153.0868547,,,None,,1.5,155.5743177,,,,2014_Sep_19_1028,60.02221188,semact_fmri_builder,1,WE018
1,object,trial_images_objects\r_staple_remover.png,n,n,staple_remover,54,,,,,,,,0,0,0,0,0,0,0,0,0,4,4,0,,,,,,,,,,,,,,,,,,,,,,,,,,,,,,,157.0739666,1411118951,1411118951,157.5833446,,,None,,0.5,160.0726862,,,,2014_Sep_19_1028,60.02221188,semact_fmri_builder,1,WE018
1,animal,trial_images_animals\r_cat_wild.png,n,n,cat_wild,8,,,,,,,,0,0,0,0,0,0,0,0,0,5,5,4,,,,,,,,,,,,,,,,,,,,,,,,,,,,,,,160.5726608,1411118954,1411118955,161.0822432,1411118956,162.3885492,3,1.305994806,3.5,163.5881421,,,,2014_Sep_19_1028,60.02221188,semact_fmri_builder,1,WE018
1,object,trial_images_objects\r_cleaningbrush.png,n,n,cleaningbrush,46,,,,,,,,0,0,0,0,0,0,0,0,0,6,6,10,,,,,,,,,,,,,,,,,,,,,,,,,,,,,,,167.0870036,1411118961,1411118961,167.5964277,,,None,,1.5,170.0856975,,,,2014_Sep_19_1028,60.02221188,semact_fmri_builder,1,WE018
1,animal,trial_images_animals\r_blackbird.png,n,n,blackbird,4,,,,,,,,0,0,0,0,0,0,0,0,0,7,7,2,,,,,,,,,,,,,,,,,,,,,,,,,,,,,,,171.585328,1411118965,1411118966,172.0975648,,,None,,2.5,174.5840723,,,,2014_Sep_19_1028,60.02221188,semact_fmri_builder,1,WE018
1,object,trial_images_objects\r_kettle.png,n,n,kettle,49,,,,,,,,0,0,0,0,0,0,0,0,0,8,8,6,,,,,,,,,,,,,,,,,,,,,,,,,,,,,,,177.0833404,1411118971,1411118971,177.5926625,,,None,,1.5,180.0820648,,,,2014_Sep_19_1028,60.02221188,semact_fmri_builder,1,WE018
1,object,trial_images_objects\r_spanner.png,n,n,spanner,55,,,,,,,,0,0,0,0,0,0,0,0,0,9,9,12,,,,,,,,,,,,,,,,,,,,,,,,,,,,,,,181.5816881,1411118975,1411118976,182.0893694,,,None,,1.5,184.5804451,,,,2014_Sep_19_1028,60.02221188,semact_fmri_builder,1,WE018
1,animal,trial_images_animals\r_dragonfly.png,n,n,dragonfly,12,,,,,,,,0,0,0,0,0,0,0,0,0,10,10,3,,,,,,,,,,,,,,,,,,,,,,,,,,,,,,,186.0800563,1411118980,1411118980,186.5921168,1411118982,188.578986,3,1.986587253,3.5,189.0788559,,,,2014_Sep_19_1028,60.02221188,semact_fmri_builder,1,WE018
1,object,trial_images_objects\r_lipstick.png,n,n,lipstick,48,,,,,,,,0,0,0,0,0,0,0,0,0,11,11,11,,,,,,,,,,,,,,,,,,,,,,,,,,,,,,,192.5777161,1411118986,1411118987,193.0852954,,,None,,1.5,195.5764191,,,,2014_Sep_19_1028,60.02221188,semact_fmri_builder,1,WE018
1,object,trial_images_objects\r_colander.png,n,n,colander,36,,,,,,,,0,0,0,0,0,0,0,0,0,12,12,8,,,,,,,,,,,,,,,,,,,,,,,,,,,,,,,197.076062,1411118991,1411118991,197.5870721,1411118993,199.0584717,3,1.471131626,2.5,200.0748685,,,,2014_Sep_19_1028,60.02221188,semact_fmri_builder,1,WE018
1,animal,trial_images_animals\r_bug_common.png,n,n,bug_common,3,,,,,,,,0,0,0,0,0,0,0,0,0,13,13,13,,,,,,,,,,,,,,,,,,,,,,,,,,,,,,,202.5741743,1411118996,1411118997,203.0854273,1411118998,204.3565685,3,1.270881578,1.5,205.572873,,,,2014_Sep_19_1028,60.02221188,semact_fmri_builder,1,WE018
1,,,,,,,,,,,,,,0,0,0,0,0,0,0,0,,,,,,,,,,,,,,,,,,,,,,,,,,,,,,,,,,,,,,,,,,,,,,,,2014_Sep_19_1028,60.02221188,semact_fmri_builder,1,WE018
1,,,,,,,,,,,,,,0,0,0,0,,,,,,,,,,,,,,,,,,,,,,,,,,,,,,,,,,,,,,,,,,,,,,,,,,,,2014_Sep_19_1028,60.02221188,semact_fmri_builder,1,WE018
3,animal,trial_images_animals\r_bulldog_english.png,n,n,,5,bulldog_english,,,,,,,0,1,1,2,,,,,,,,,,,,,0,0,0,0,,,,,0,0,0,13,,,,,,,,,,,,,1411119004,210.1128616,213.1209133,1411119007,1411119007,213.6173772,1411119008,214.9527442,3,1.335036439,0.5,216.1026557,1411119010,,,2014_Sep_19_1028,60.02221188,semact_fmri_builder,1,WE018
3,animal,trial_images_animals\r_cricket_green.png,n,v,,10,cricket_green,,,,,,,0,1,1,2,,,,,,,,,,,,,0,0,0,0,,,,,0,1,1,10,,,,,,,,,,,,,,,216.6023662,1411119010,1411119011,217.1139066,1411119012,218.1348733,3,1.020699566,1.5,219.6011936,1411119013,,,2014_Sep_19_1028,60.02221188,semact_fmri_builder,1,WE018
3,animal,trial_images_animals\r_squirrel_red.png,n,v,,22,squirrel_red,,,,,,,0,1,1,2,,,,,,,,,,,,,0,0,0,0,,,,,0,2,2,11,,,,,,,,,,,,,,,221.1174264,1411119015,1411119015,221.6291253,,,None,,2.5,224.1161442,1411119018,,,2014_Sep_19_1028,60.02221188,semact_fmri_builder,1,WE018
3,object,trial_images_objects\r_maracas.png,f,v,,60,maracas,,,,,,,0,1,1,2,,,,,,,,,,,,,0,0,0,0,,,,,0,3,3,4,,,,,,,,,,,,,,,226.6154952,1411119020,1411119021,227.1263658,1411119021,227.9145687,3,0.787929132,1.5,229.6142224,1411119023,,,2014_Sep_19_1028,60.02221188,semact_fmri_builder,1,WE018
3,animal,trial_images_animals\r_seal_grey.png,n,n,,26,seal_grey,,,,,,,0,1,1,2,,,,,,,,,,,,,0,0,0,0,,,,,0,4,4,0,,,,,,,,,,,,,,,231.1137817,1411119025,1411119025,231.6244075,,,None,,0.5,234.112507,1411119028,,,2014_Sep_19_1028,60.02221188,semact_fmri_builder,1,WE018
3,animal,trial_images_animals\r_camel.png,f,n,,7,camel,,,,,,,0,1,1,2,,,,,,,,,,,,,0,0,0,0,,,,,0,5,5,9,,,,,,,,,,,,,,,234.6124883,1411119028,1411119029,235.1237549,1411119029,235.811767,3,0.687757322,3.5,237.61136,1411119031,,,2014_Sep_19_1028,60.02221188,semact_fmri_builder,1,WE018
3,object,trial_images_objects\r_pliers.png,n,n,,59,pliers,,,,,,,0,1,1,2,,,,,,,,,,,,,0,0,0,0,,,,,0,6,6,6,,,,,,,,,,,,,,,241.1101547,1411119035,1411119035,241.6217108,,,None,,0.5,244.1088682,1411119038,,,2014_Sep_19_1028,60.02221188,semact_fmri_builder,1,WE018
3,object,trial_images_objects\r_broom.png,n,n,,33,broom,,,,,,,0,1,1,2,,,,,,,,,,,,,0,0,0,0,,,,,0,7,7,12,,,,,,,,,,,,,,,244.6088423,1411119038,1411119039,245.1150337,,,None,,1.5,247.6076077,1411119041,,,2014_Sep_19_1028,60.02221188,semact_fmri_builder,1,WE018
3,object,trial_images_objects\r_rolling_pin.png,n,n,,56,rolling_pin,,,,,,,0,1,1,2,,,,,,,,,,,,,0,0,0,0,,,,,0,8,8,7,,,,,,,,,,,,,,,249.1072193,1411119043,1411119043,249.6181071,1411119045,251.0729038,3,1.454525066,0.5,252.1060282,1411119046,,,2014_Sep_19_1028,60.02221188,semact_fmri_builder,1,WE018
3,object,trial_images_objects\r_eyelash_curlers.png,n,n,,43,eyelash_curlers,,,,,,,0,1,1,2,,,,,,,,,,,,,0,0,0,0,,,,,0,9,9,8,,,,,,,,,,,,,,,252.6059349,1411119046,1411119047,253.1127488,,,None,,2.5,255.6046789,1411119049,,,2014_Sep_19_1028,60.02221188,semact_fmri_builder,1,WE018
3,animal,trial_images_animals\r_harvest_mouse.png,n,n,,19,harvest_mouse,,,,,,,0,1,1,2,,,,,,,,,,,,,0,0,0,0,,,,,0,10,10,5,,,,,,,,,,,,,,,258.1040001,1411119052,1411119052,258.6143938,,,None,,0.5,261.1026943,1411119055,,,2014_Sep_19_1028,60.02221188,semact_fmri_builder,1,WE018
3,animal,trial_images_animals\r_seagull_herring.png,n,n,,17,seagull_herring,,,,,,,0,1,1,2,,,,,,,,,,,,,0,0,0,0,,,,,0,11,11,3,,,,,,,,,,,,,,,261.6026871,1411119055,1411119056,262.1151747,,,None,,2.5,264.6014124,1411119058,,,2014_Sep_19_1028,60.02221188,semact_fmri_builder,1,WE018
3,animal,trial_images_animals\r_frog.png,n,v,,15,frog,,,,,,,0,1,1,2,,,,,,,,,,,,,0,0,0,0,,,,,0,12,12,2,,,,,,,,,,,,,,,267.117357,1411119061,1411119061,267.6266426,,,None,,3.5,270.1160938,1411119064,,,2014_Sep_19_1028,60.02221188,semact_fmri_builder,1,WE018
3,animal,trial_images_animals\r_horse.png,n,n,,21,horse,,,,,,,0,1,1,2,,,,,,,,,,,,,0,0,0,0,,,,,0,13,13,1,,,,,,,,,,,,,,,273.6150065,1411119067,1411119068,274.1264416,,,None,,1.5,276.6136935,1411119070,,,2014_Sep_19_1028,60.02221188,semact_fmri_builder,1,WE018
3,,,,,,,,,,,,,,0,1,1,2,,,,,,,,,,,,,0,0,0,0,,,,,,,,,,,,,,,,,,,,,,,,,,,,,,,,,,,,2014_Sep_19_1028,60.02221188,semact_fmri_builder,1,WE018
3,,,,,,,,,,,,,,0,1,1,2,,,,,,,,,,,,,,,,,,,,,,,,,,,,,,,,,,,,,,,,,,,,,,,,,,,,2014_Sep_19_1028,60.02221188,semact_fmri_builder,1,WE018
4,object,trial_images_objects\r_nail_file.png,n,n,,53,,nail_file,,,,,,0,2,2,3,,,,,,,,,,,,,,,,,0,0,0,0,,,,,0,0,0,11,,,,,,,,,,,284.1452866,1411119078,1411119078,284.6362205,,,None,,0.5,287.1267208,1411119081,1411119075,281.1327142,2014_Sep_19_1028,60.02221188,semact_fmri_builder,1,WE018
4,object,trial_images_objects\r_compass.png,n,n,,37,,compass,,,,,,0,2,2,3,,,,,,,,,,,,,,,,,0,0,0,0,,,,,0,1,1,2,,,,,,,,,,,287.6266565,1411119081,1411119082,288.1329666,,,None,,1.5,290.6252798,1411119084,,,2014_Sep_19_1028,60.02221188,semact_fmri_builder,1,WE018
4,object,trial_images_objects\r_spatula.png,n,n,,32,,spatula,,,,,,0,2,2,3,,,,,,,,,,,,,,,,,0,0,0,0,,,,,0,2,2,5,,,,,,,,,,,292.1249167,1411119086,1411119086,292.6323188,1411119087,293.557479,3,0.924858918,3.5,295.1237624,1411119089,,,2014_Sep_19_1028,60.02221188,semact_fmri_builder,1,WE018
4,object,trial_images_objects\r_corkscrew.png,n,n,,41,,corkscrew,,,,,,0,2,2,3,,,,,,,,,,,,,,,,,0,0,0,0,,,,,0,3,3,3,,,,,,,,,,,298.6225898,1411119092,1411119093,299.1305361,1411119094,300.5549199,3,1.424103402,2.5,301.6214002,1411119095,,,2014_Sep_19_1028,60.02221188,semact_fmri_builder,1,WE018
4,object,trial_images_objects\r_toothbrush.png,n,n,,38,,toothbrush,,,,,,0,2,2,3,,,,,,,,,,,,,,,,,0,0,0,0,,,,,0,4,4,7,,,,,,,,,,,304.1205617,1411119098,1411119098,304.6310423,,,None,,2.5,307.1192942,1411119101,,,2014_Sep_19_1028,60.02221188,semact_fmri_builder,1,WE018
4,object,trial_images_objects\r_pitchfork.png,n,n,,52,,pitchfork,,,,,,0,2,2,3,,,,,,,,,,,,,,,,,0,0,0,0,,,,,0,5,5,1,,,,,,,,,,,309.6185759,1411119103,1411119104,310.1272572,1411119105,311.600882,3,1.473353199,0.5,312.6340288,1411119106,,,2014_Sep_19_1028,60.02221188,semact_fmri_builder,1,WE018
4,animal,trial_images_animals\r_stoat.png,n,n,,29,,stoat,,,,,,0,2,2,3,,,,,,,,,,,,,,,,,0,0,0,0,,,,,0,6,6,4,,,,,,,,,,,313.1339307,1411119107,1411119107,313.6476899,,,None,,2.5,316.1326853,1411119110,,,2014_Sep_19_1028,60.02221188,semact_fmri_builder,1,WE018
4,object,trial_images_objects\r_knife_table.png,n,n,,42,,knife_table,,,,,,0,2,2,3,,,,,,,,,,,,,,,,,0,0,0,0,,,,,0,7,7,12,,,,,,,,,,,318.6319877,1411119112,1411119113,319.1400409,1411119114,320.6309352,3,1.490610232,3.5,321.6307716,1411119115,,,2014_Sep_19_1028,60.02221188,semact_fmri_builder,1,WE018
4,object,trial_images_objects\r_pepper_mill.png,n,n,,35,,peppemill,,,,,,0,2,2,3,,,,,,,,,,,,,,,,,0,0,0,0,,,,,0,8,8,0,,,,,,,,,,,325.1296055,1411119119,1411119119,325.6371894,1411119121,327.7783414,3,2.140868852,2.5,328.1283918,1411119122,,,2014_Sep_19_1028,60.02221188,semact_fmri_builder,1,WE018
4,animal,trial_images_animals\r_goat.png,n,n,,16,,goat1,,,,,,0,2,2,3,,,,,,,,,,,,,,,,,0,0,0,0,,,,,0,9,9,8,,,,,,,,,,,330.6276043,1411119124,1411119125,331.1390632,,,None,,2.5,333.6263212,1411119127,,,2014_Sep_19_1028,60.02221188,semact_fmri_builder,1,WE018
4,object,trial_images_objects\r_pen.png,n,n,,51,,pen1,,,,,,0,2,2,3,,,,,,,,,,,,,,,,,0,0,0,0,,,,,0,10,10,6,,,,,,,,,,,336.1256091,1411119130,1411119130,336.6339316,1411119131,337.7747129,3,1.140509054,2.5,339.1243933,1411119133,,,2014_Sep_19_1028,60.02221188,semact_fmri_builder,1,WE018
4,object,trial_images_objects\r_chi_instrument.png,f,n,,31,,chi_instrument,,,,,,0,2,2,3,,,,,,,,,,,,,,,,,0,0,0,0,,,,,0,11,11,10,,,,,,,,,,,341.6235976,1411119135,1411119136,342.1313819,,,None,,1.5,344.6223172,1411119138,,,2014_Sep_19_1028,60.02221188,semact_fmri_builder,1,WE018
4,animal,trial_images_animals\r_owl.png,n,n,,25,,owl2,,,,,,0,2,2,3,,,,,,,,,,,,,,,,,0,0,0,0,,,,,0,12,12,13,,,,,,,,,,,346.1219502,1411119140,1411119140,346.6327547,,,None,,1.5,349.1206848,1411119143,,,2014_Sep_19_1028,60.02221188,semact_fmri_builder,1,WE018
4,object,trial_images_objects\r_coping_saw.png,n,n,,40,,coping_saw,,,,,,0,2,2,3,,,,,,,,,,,,,,,,,0,0,0,0,,,,,0,13,13,9,,,,,,,,,,,350.6203127,1411119144,1411119145,351.12747,1411119146,352.33606,3,1.208333434,0.5,353.6191433,1411119147,,,2014_Sep_19_1028,60.02221188,semact_fmri_builder,1,WE018
4,,,,,,,,,,,,,,0,2,2,3,,,,,,,,,,,,,,,,,0,0,0,0,,,,,,,,,,,,,,,,,,,,,,,,,,,,,,,,2014_Sep_19_1028,60.02221188,semact_fmri_builder,1,WE018
4,,,,,,,,,,,,,,0,2,2,3,,,,,,,,,,,,,,,,,,,,,,,,,,,,,,,,,,,,,,,,,,,,,,,,,,,,2014_Sep_19_1028,60.02221188,semact_fmri_builder,1,WE018
2,object,trial_images_objects\r_iron.png,n,n,,39,,,iron,,,,,0,3,3,1,,,,,,,,,0,0,0,0,,,,,,,,,,,,,,,,,0,0,0,11,,,,,,,360.1506389,1411119154,1411119154,360.6430433,1411119155,361.9659487,3,1.322569672,1.5,363.1323734,,1411119151,357.1277269,2014_Sep_19_1028,60.02221188,semact_fmri_builder,1,WE018
2,object,trial_images_objects\r_axe.png,n,v,,34,,,axe,,,,,0,3,3,1,,,,,,,,,0,0,0,0,,,,,,,,,,,,,,,,,0,1,1,13,,,,,,,364.6317776,1411119158,1411119159,365.1393032,1411119159,365.9478401,3,0.808281275,1.5,367.6306107,,,,2014_Sep_19_1028,60.02221188,semact_fmri_builder,1,WE018
2,animal,trial_images_animals\r_bat.png,n,n,,2,,,bat,,,,,0,3,3,1,,,,,,,,,0,0,0,0,,,,,,,,,,,,,,,,,0,2,2,5,,,,,,,369.1301537,1411119163,1411119163,369.6398115,,,None,,1.5,372.128869,,,,2014_Sep_19_1028,60.02221188,semact_fmri_builder,1,WE018
2,animal,trial_images_animals\r_badger.png,n,n,,1,,,badger1,,,,,0,3,3,1,,,,,,,,,0,0,0,0,,,,,,,,,,,,,,,,,0,3,3,9,,,,,,,373.6284941,1411119167,1411119168,374.1406497,,,None,,3.5,376.627272,,,,2014_Sep_19_1028,60.02221188,semact_fmri_builder,1,WE018
2,animal,trial_images_animals\r_mole.png,n,n,,20,,,mole,,,,,0,3,3,1,,,,,,,,,0,0,0,0,,,,,,,,,,,,,,,,,0,4,4,4,,,,,,,380.1261733,1411119174,1411119174,380.635963,,,None,,0.5,383.1248907,,,,2014_Sep_19_1028,60.02221188,semact_fmri_builder,1,WE018
2,animal,trial_images_animals\r_fox_red.png,n,n,,14,,,fox_red,,,,,0,3,3,1,,,,,,,,,0,0,0,0,,,,,,,,,,,,,,,,,0,5,5,2,,,,,,,383.6248596,1411119177,1411119178,384.1354559,,,None,,2.5,386.6236076,,,,2014_Sep_19_1028,60.02221188,semact_fmri_builder,1,WE018
2,animal,trial_images_animals\r_butterfly.png,n,n,,6,,,butterfly,,,,,0,3,3,1,,,,,,,,,0,0,0,0,,,,,,,,,,,,,,,,,0,6,6,10,,,,,,,389.1228919,1411119183,1411119183,389.6358214,1411119184,390.538851,3,0.90276785,1.5,392.121706,,,,2014_Sep_19_1028,60.02221188,semact_fmri_builder,1,WE018
2,object,trial_images_objects\r_rasp.png,n,n,,47,,,rasp,,,,,0,3,3,1,,,,,,,,,0,0,0,0,,,,,,,,,,,,,,,,,0,7,7,12,,,,,,,393.6212399,1411119187,1411119188,394.1292838,,,None,,3.5,396.6199812,,,,2014_Sep_19_1028,60.02221188,semact_fmri_builder,1,WE018
2,animal,trial_images_animals\r_kangaroo_red.png,f,v,,23,,,kangaroo_red,,,,,0,3,3,1,,,,,,,,,0,0,0,0,,,,,,,,,,,,,,,,,0,8,8,1,,,,,,,400.1188946,1411119194,1411119194,400.6309011,1411119195,401.5348561,3,0.903683042,1.5,403.134362,,,,2014_Sep_19_1028,60.02221188,semact_fmri_builder,1,WE018
2,animal,trial_images_animals\r_springbok.png,f,n,,28,,,springbok,,,,,0,3,3,1,,,,,,,,,0,0,0,0,,,,,,,,,,,,,,,,,0,9,9,3,,,,,,,404.6338926,1411119198,1411119199,405.1446953,1411119201,407.0162081,3,1.871236003,1.5,407.632732,,,,2014_Sep_19_1028,60.02221188,semact_fmri_builder,1,WE018
2,animal,trial_images_animals\r_swan_bewick.png,n,n,,30,,,swan_bewick,,,,,0,3,3,1,,,,,,,,,0,0,0,0,,,,,,,,,,,,,,,,,0,10,10,6,,,,,,,409.13226,1411119203,1411119203,409.6438641,,,None,,0.5,412.1310031,,,,2014_Sep_19_1028,60.02221188,semact_fmri_builder,1,WE018
2,animal,trial_images_animals\r_deer_roe.png,n,n,,11,,,deer_roe,,,,,0,3,3,1,,,,,,,,,0,0,0,0,,,,,,,,,,,,,,,,,0,11,11,7,,,,,,,412.6309904,1411119206,1411119207,413.1399241,1411119208,414.3801784,3,1.239992961,1.5,415.6298144,,,,2014_Sep_19_1028,60.02221188,semact_fmri_builder,1,WE018
2,animal,trial_images_animals\r_duck_white.png,n,n,,13,,,duck_white,,,,,0,3,3,1,,,,,,,,,0,0,0,0,,,,,,,,,,,,,,,,,0,12,12,8,,,,,,,417.1293789,1411119211,1411119211,417.6408326,1411119213,419.0784665,3,1.437371263,2.5,420.128173,,,,2014_Sep_19_1028,60.02221188,semact_fmri_builder,1,WE018
2,object,trial_images_objects\r_pasta_spoon.png,n,n,,50,,,pasta_spoon,,,,,0,3,3,1,,,,,,,,,0,0,0,0,,,,,,,,,,,,,,,,,0,13,13,0,,,,,,,422.627368,1411119216,1411119217,423.1370116,1411119218,424.3432116,3,1.20594313,3.5,425.6261859,,,,2014_Sep_19_1028,60.02221188,semact_fmri_builder,1,WE018
2,,,,,,,,,,,,,,0,3,3,1,,,,,,,,,0,0,0,0,,,,,,,,,,,,,,,,,,,,,,,,,,,,,,,,,,,,,,,,2014_Sep_19_1028,60.02221188,semact_fmri_builder,1,WE018
2,,,,,,,,,,,,,,0,3,3,1,,,,,,,,,,,,,,,,,,,,,,,,,,,,,,,,,,,,,,,,,,,,,,,,,,,,2014_Sep_19_1028,60.02221188,semact_fmri_builder,1,WE018
