selectBlock,category,paths,semantic,action,number,image4,image1,image2,image3,trigger_loop.thisRepN,trigger_loop.thisTrialN,trigger_loop.thisN,trigger_loop.thisIndex,blockSelectLoop.thisRepN,blockSelectLoop.thisTrialN,blockSelectLoop.thisN,blockSelectLoop.thisIndex,b1loop.thisRepN,b1loop.thisTrialN,b1loop.thisN,b1loop.thisIndex,b2loop.thisRepN,b2loop.thisTrialN,b2loop.thisN,b2loop.thisIndex,b3loop.thisRepN,b3loop.thisTrialN,b3loop.thisN,b3loop.thisIndex,b4loop.thisRepN,b4loop.thisTrialN,b4loop.thisN,b4loop.thisIndex,b4_trialLoop.thisRepN,b4_trialLoop.thisTrialN,b4_trialLoop.thisN,b4_trialLoop.thisIndex,b1_trialLoop.thisRepN,b1_trialLoop.thisTrialN,b1_trialLoop.thisN,b1_trialLoop.thisIndex,b2_trialLoop.thisRepN,b2_trialLoop.thisTrialN,b2_trialLoop.thisN,b2_trialLoop.thisIndex,b3_trialLoop.thisRepN,b3_trialLoop.thisTrialN,b3_trialLoop.thisN,b3_trialLoop.thisIndex,GenInstrAbsTime,GenInstrTime,triggerClock,triggerAbsClock,ActInstr_startAbstime,ActInstr_starttime,startFixAbstime,startFixtime,Img_startAbstime,Img_starttime,key_resp_2.keys,JitDur,startJitAbstime,startJittime,RespgetAbsTime,Respgettime,key_resp_2.rt,SemInstr_startAbstime,SemInstr_starttime,date,frameRate,expName,session,participant,
,,,,,,,,,,0,0,0,0,,,,,,,,,,,,,,,,,,,,,,,,,,,,,,,,,,,,,1411119269,9.03715399605,52.465522456,1411119313,,,,,,,,,,,,,,,,2014_Sep_19_1034,60.0230818427,semact_fmri_builder,002,we018,
4,object,trial_images_objects\r_shisha.png,f,n,120,shisha,,,,,,,,0,0,0,3,,,,,,,,,,,,,0,0,0,0,0,0,0,4,,,,,,,,,,,,,,,,,1411119313,52.5017011936,1411119316,55.5095002427,1411119316,56.0055792872,None,1.5,1411119319,58.491211204,,,,,,2014_Sep_19_1034,60.0230818427,semact_fmri_builder,002,we018,
4,animal,trial_images_animals\r_dog_terrier.png,n,n,68,dog_terrier,,,,,,,,0,0,0,3,,,,,,,,,,,,,0,0,0,0,0,1,1,13,,,,,,,,,,,,,,,,,,,1411119320,59.9908332951,1411119321,60.5002870538,None,1.5,1411119323,62.9893944041,,,,,,2014_Sep_19_1034,60.0230818427,semact_fmri_builder,002,we018,
4,animal,trial_images_animals\r_otter.png,n,n,86,otter,,,,,,,,0,0,0,3,,,,,,,,,,,,,0,0,0,0,0,2,2,2,,,,,,,,,,,,,,,,,,,1411119325,64.4890210228,1411119325,65.0002001227,None,1.5,1411119328,67.4877478442,,,,,,2014_Sep_19_1034,60.0230818427,semact_fmri_builder,002,we018,
4,animal,trial_images_animals\r_goose_canada.png,n,n,77,goose_canada,,,,,,,,0,0,0,3,,,,,,,,,,,,,0,0,0,0,0,3,3,8,,,,,,,,,,,,,,,,,,,1411119329,68.9874185323,1411119330,69.4966788089,3,1.5,1411119332,71.9862651858,1411119331,70.3200187868,0.823020023133,,,2014_Sep_19_1034,60.0230818427,semact_fmri_builder,002,we018,
4,animal,trial_images_animals\r_vole.png,n,n,79,vole,,,,,,,,0,0,0,3,,,,,,,,,,,,,0,0,0,0,0,4,4,5,,,,,,,,,,,,,,,,,,,1411119334,73.5024159606,1411119334,74.0144701066,None,0.5,1411119337,76.5011337266,,,,,,2014_Sep_19_1034,60.0230818427,semact_fmri_builder,002,we018,
4,object,trial_images_objects\r_scoop.png,n,n,110,scoop,,,,,,,,0,0,0,3,,,,,,,,,,,,,0,0,0,0,0,5,5,12,,,,,,,,,,,,,,,,,,,1411119337,77.0011225584,1411119338,77.5094845468,3,1.5,1411119340,79.9999664953,1411119339,78.4503321493,0.94057594278,,,2014_Sep_19_1034,60.0230818427,semact_fmri_builder,002,we018,
4,object,trial_images_objects\r_whisk.png,n,n,116,whisk,,,,,,,,0,0,0,3,,,,,,,,,,,,,0,0,0,0,0,6,6,0,,,,,,,,,,,,,,,,,,,1411119342,81.4995381785,1411119342,82.0094797173,3,2.5,1411119345,84.4983301982,1411119343,82.782077883,0.772334052125,,,2014_Sep_19_1034,60.0230818427,semact_fmri_builder,002,we018,
4,object,trial_images_objects\r_paint_roller.png,n,v,117,paint_roller,,,,,,,,0,0,0,3,,,,,,,,,,,,,0,0,0,0,0,7,7,10,,,,,,,,,,,,,,,,,,,1411119347,86.9975122005,1411119348,87.5075258801,3,0.5,1411119350,89.996316294,1411119349,88.6132902582,1.10549875519,,,2014_Sep_19_1034,60.0230818427,semact_fmri_builder,002,we018,
4,animal,trial_images_animals\r_hedgehog.png,n,n,80,hedgehog,,,,,,,,0,0,0,3,,,,,,,,,,,,,0,0,0,0,0,8,8,7,,,,,,,,,,,,,,,,,,,1411119351,90.4962399275,1411119351,91.0075669309,None,2.5,1411119354,93.4949724839,,,,,,2014_Sep_19_1034,60.0230818427,semact_fmri_builder,002,we018,
4,object,trial_images_objects\r_handbell.png,n,v,91,handbell,,,,,,,,0,0,0,3,,,,,,,,,,,,,0,0,0,0,0,9,9,6,,,,,,,,,,,,,,,,,,,1411119356,95.9942429266,1411119357,96.5041515644,3,0.5,1411119359,98.993045209,1411119358,97.4434105612,0.938996694203,,,2014_Sep_19_1034,60.0230818427,semact_fmri_builder,002,we018,
4,animal,trial_images_animals\r_highland_cow.png,n,n,69,highland_cow,,,,,,,,0,0,0,3,,,,,,,,,,,,,0,0,0,0,0,10,10,11,,,,,,,,,,,,,,,,,,,1411119360,99.492952241,1411119360,100.005460059,None,2.5,1411119363,102.491691136,,,,,,2014_Sep_19_1034,60.0230818427,semact_fmri_builder,002,we018,
4,animal,trial_images_animals\r_bulldog_whiteenglish.png,n,n,65,bulldog_whiteenglish,,,,,,,,0,0,0,3,,,,,,,,,,,,,0,0,0,0,0,11,11,9,,,,,,,,,,,,,,,,,,,1411119365,104.991010176,1411119366,105.503592549,None,2.5,1411119368,107.989690211,,,,,,2014_Sep_19_1034,60.0230818427,semact_fmri_builder,002,we018,
4,object,trial_images_objects\r_stapler.png,n,n,97,stapler,,,,,,,,0,0,0,3,,,,,,,,,,,,,0,0,0,0,0,12,12,1,,,,,,,,,,,,,,,,,,,1411119371,110.489111274,1411119371,110.997876828,3,2.5,1411119374,113.487833568,1411119372,112.004786041,1.00664872103,,,2014_Sep_19_1034,60.0230818427,semact_fmri_builder,002,we018,
4,object,trial_images_objects\r_teapot.png,n,n,109,teapot,,,,,,,,0,0,0,3,,,,,,,,,,,,,0,0,0,0,0,13,13,3,,,,,,,,,,,,,,,,,,,1411119376,115.986992026,1411119377,116.497128255,3,2.5,1411119379,119.002441919,1411119378,117.752699392,1.25529585556,,,2014_Sep_19_1034,60.0230818427,semact_fmri_builder,002,we018,
4,,,,,,,,,,,,,,0,0,0,3,,,,,,,,,,,,,0,0,0,0,,,,,,,,,,,,,,,,,,,,,,,,,,,,,,,,,,,,2014_Sep_19_1034,60.0230818427,semact_fmri_builder,002,we018,
4,,,,,,,,,,,,,,0,0,0,3,,,,,,,,,,,,,,,,,,,,,,,,,,,,,,,,,,,,,,,,,,,,,,,,,,,,2014_Sep_19_1034,60.0230818427,semact_fmri_builder,002,we018,
1,object,trial_images_objects\r_cakeslicer.png,n,n,92,,cakeslicer,,,,,,,0,1,1,0,0,0,0,0,,,,,,,,,,,,,,,,,0,0,0,2,,,,,,,,,,,,,,,1411119388,127.532715982,1411119388,128.023248942,3,3.5,,130.515007993,1411119389,128.99865619,0.97507220112,1411119385,124.505591361,2014_Sep_19_1034,60.0230818427,semact_fmri_builder,002,we018,
1,object,trial_images_objects\r_screwdriver.png,n,n,115,,screwdriver,,,,,,,0,1,1,0,0,0,0,0,,,,,,,,,,,,,,,,,0,1,1,7,,,,,,,,,,,,,,,1411119394,134.013653316,1411119395,134.522984828,None,0.5,,137.012383458,,,,,,2014_Sep_19_1034,60.0230818427,semact_fmri_builder,002,we018,
1,animal,trial_images_animals\r_jerboas.png,f,v,82,,jerboas,,,,,,,0,1,1,0,0,0,0,0,,,,,,,,,,,,,,,,,0,2,2,10,,,,,,,,,,,,,,,1411119398,137.512357198,1411119398,138.023735816,None,1.5,,140.511123561,,,,,,2014_Sep_19_1034,60.0230818427,semact_fmri_builder,002,we018,
1,animal,trial_images_animals\r_moth.png,n,n,66,,moth,,,,,,,0,1,1,0,0,0,0,0,,,,,,,,,,,,,,,,,0,3,3,13,,,,,,,,,,,,,,,1411119402,142.010735389,1411119403,142.521208475,None,1.5,,145.009464625,,,,,,2014_Sep_19_1034,60.0230818427,semact_fmri_builder,002,we018,
1,object,trial_images_objects\r_tweezers.png,n,n,103,,tweezers,,,,,,,0,1,1,0,0,0,0,0,,,,,,,,,,,,,,,,,0,4,4,6,,,,,,,,,,,,,,,1411119407,146.509086414,1411119407,147.017870381,None,2.5,,149.507832856,,,,,,2014_Sep_19_1034,60.0230818427,semact_fmri_builder,002,we018,
1,animal,trial_images_animals\r_badger2.png,n,n,61,,badger2,,,,,,,0,1,1,0,0,0,0,0,,,,,,,,,,,,,,,,,0,5,5,0,,,,,,,,,,,,,,,1411119412,152.007106317,1411119413,152.520605089,None,0.5,,155.005834647,,,,,,2014_Sep_19_1034,60.0230818427,semact_fmri_builder,002,we018,
1,animal,trial_images_animals\r_beaver.png,n,n,63,,beaver,,,,,,,0,1,1,0,0,0,0,0,,,,,,,,,,,,,,,,,0,6,6,5,,,,,,,,,,,,,,,1411119416,155.50580567,1411119416,156.017351209,3,0.5,,158.504641457,1411119419,158.18799759,2.17037079742,,,2014_Sep_19_1034,60.0230818427,semact_fmri_builder,002,we018,
1,animal,trial_images_animals\r_polecat.png,n,n,89,,polecat,,,,,,,0,1,1,0,0,0,0,0,,,,,,,,,,,,,,,,,0,7,7,9,,,,,,,,,,,,,,,1411119419,159.004538529,1411119420,159.515066551,3,0.5,,162.003393936,1411119421,160.570487853,1.05513726664,,,2014_Sep_19_1034,60.0230818427,semact_fmri_builder,002,we018,
1,animal,trial_images_animals\r_deer_fallow.png,n,n,71,,deer_fallow,,,,,,,0,1,1,0,0,0,0,0,,,,,,,,,,,,,,,,,0,8,8,1,,,,,,,,,,,,,,,1411119423,162.503270179,1411119423,163.012670512,None,1.5,,165.502029902,,,,,,2014_Sep_19_1034,60.0230818427,semact_fmri_builder,002,we018,
1,animal,trial_images_animals\r_grasshopper_common.png,n,v,70,,grasshopper_common,,,,,,,0,1,1,0,0,0,0,0,,,,,,,,,,,,,,,,,0,9,9,3,,,,,,,,,,,,,,,1411119427,167.001646862,1411119428,167.510331823,3,1.5,,170.017124222,1411119430,169.25066285,1.74005091507,,,2014_Sep_19_1034,60.0230818427,semact_fmri_builder,002,we018,
1,object,trial_images_objects\r_frypan.png,n,n,104,,frypan,,,,,,,0,1,1,0,0,0,0,0,,,,,,,,,,,,,,,,,0,10,10,11,,,,,,,,,,,,,,,1411119432,171.516679304,1411119432,172.025869251,None,2.5,,174.515391637,,,,,,2014_Sep_19_1034,60.0230818427,semact_fmri_builder,002,we018,
1,animal,trial_images_animals\r_giraffe.png,f,n,67,,giraffe,,,,,,,0,1,1,0,0,0,0,0,,,,,,,,,,,,,,,,,0,11,11,4,,,,,,,,,,,,,,,1411119437,177.014700715,1411119438,177.524410136,3,2.5,,180.013508733,1411119439,178.214092318,0.689411729905,,,2014_Sep_19_1034,60.0230818427,semact_fmri_builder,002,we018,
1,animal,trial_images_animals\r_toad.png,n,v,75,,toad,,,,,,,0,1,1,0,0,0,0,0,,,,,,,,,,,,,,,,,0,12,12,12,,,,,,,,,,,,,,,1411119443,182.5127013,1411119443,183.024265553,None,2.5,,185.511403974,,,,,,2014_Sep_19_1034,60.0230818427,semact_fmri_builder,002,we018,
1,animal,trial_images_animals\r_swan2.png,n,n,90,,swan2,,,,,,,0,1,1,0,0,0,0,0,,,,,,,,,,,,,,,,,0,13,13,8,,,,,,,,,,,,,,,1411119448,188.010679246,1411119449,188.522242593,None,2.5,,191.009423574,,,,,,2014_Sep_19_1034,60.0230818427,semact_fmri_builder,002,we018,
1,,,,,,,,,,,,,,0,1,1,0,0,0,0,0,,,,,,,,,,,,,,,,,,,,,,,,,,,,,,,,,,,,,,,,,,,,,,,,2014_Sep_19_1034,60.0230818427,semact_fmri_builder,002,we018,
1,,,,,,,,,,,,,,0,1,1,0,,,,,,,,,,,,,,,,,,,,,,,,,,,,,,,,,,,,,,,,,,,,,,,,,,,,2014_Sep_19_1034,60.0230818427,semact_fmri_builder,002,we018,
2,object,trial_images_objects\r_garden clippers.png,n,n,105,,,garden_clippers,,,,,,0,2,2,1,,,,,0,0,0,0,,,,,,,,,,,,,,,,,0,0,0,1,,,,,,,,,1411119457,196.528651046,1411119460,199.540561213,1411119460,200.03048475,3,1.5,,202.522116724,1411119462,201.572291673,1.54146161388,,,2014_Sep_19_1034,60.0230818427,semact_fmri_builder,002,we018,
2,object,trial_images_objects\r_rake.png,n,n,112,,,rake,,,,,,0,2,2,1,,,,,0,0,0,0,,,,,,,,,,,,,,,,,0,1,1,2,,,,,,,,,,,1411119464,204.021513942,1411119465,204.529250811,3,3.5,,207.036997339,1411119466,205.320858819,0.791350837074,,,2014_Sep_19_1034,60.0230818427,semact_fmri_builder,002,we018,
2,object,trial_images_objects\r_pincer.png,n,n,119,,,pincer,,,,,,0,2,2,1,,,,,0,0,0,0,,,,,,,,,,,,,,,,,0,2,2,12,,,,,,,,,,,1411119471,210.535829806,1411119471,211.044493336,None,0.5,,213.5345358,,,,,,2014_Sep_19_1034,60.0230818427,semact_fmri_builder,002,we018,
2,animal,trial_images_animals\r_duck_mallard.png,n,n,73,,,duck_mallard,,,,,,0,2,2,1,,,,,0,0,0,0,,,,,,,,,,,,,,,,,0,3,3,7,,,,,,,,,,,1411119474,214.034530669,1411119475,214.5463533,3,1.5,,217.033396036,1411119476,215.900356719,1.3537374946,,,2014_Sep_19_1034,60.0230818427,semact_fmri_builder,002,we018,
2,object,trial_images_objects\r_bottle_cleaner.png,n,n,98,,,bottle_cleaner,,,,,,0,2,2,1,,,,,0,0,0,0,,,,,,,,,,,,,,,,,0,4,4,10,,,,,,,,,,,1411119479,218.532914293,1411119479,219.040046267,3,0.5,,221.531776341,1411119481,220.898572217,1.858247348,,,2014_Sep_19_1034,60.0230818427,semact_fmri_builder,002,we018,
2,object,trial_images_objects\r_nailclipper.png,n,n,113,,,nailclipper,,,,,,0,2,2,1,,,,,0,0,0,0,,,,,,,,,,,,,,,,,0,5,5,3,,,,,,,,,,,1411119482,222.031675827,1411119483,222.538748941,None,1.5,,225.030367332,,,,,,2014_Sep_19_1034,60.0230818427,semact_fmri_builder,002,we018,
2,animal,trial_images_animals\r_crow.png,n,n,64,,,crow,,,,,,0,2,2,1,,,,,0,0,0,0,,,,,,,,,,,,,,,,,0,6,6,4,,,,,,,,,,,1411119487,226.53000693,1411119487,227.040573588,3,1.5,,229.528817966,1411119489,228.329202093,1.28835654314,,,2014_Sep_19_1034,60.0230818427,semact_fmri_builder,002,we018,
2,animal,trial_images_animals\r_ladybird.png,n,n,72,,,ladybird,,,,,,0,2,2,1,,,,,0,0,0,0,,,,,,,,,,,,,,,,,0,7,7,11,,,,,,,,,,,1411119491,231.028361578,1411119492,231.539500532,3,1.5,,234.027182575,1411119494,233.210699288,1.67092407775,,,2014_Sep_19_1034,60.0230818427,semact_fmri_builder,002,we018,
2,animal,trial_images_animals\r_sheep_blackfaced.png,n,n,87,,,sheep_blackfaced,,,,,,0,2,2,1,,,,,0,0,0,0,,,,,,,,,,,,,,,,,0,8,8,8,,,,,,,,,,,1411119496,235.526723168,1411119496,236.038263575,None,2.5,,238.525443651,,,,,,2014_Sep_19_1034,60.0230818427,semact_fmri_builder,002,we018,
2,object,trial_images_objects\r_key.png,n,n,108,,,key,,,,,,0,2,2,1,,,,,0,0,0,0,,,,,,,,,,,,,,,,,0,9,9,13,,,,,,,,,,,1411119501,241.024748202,1411119502,241.532972247,None,2.5,,244.023438198,,,,,,2014_Sep_19_1034,60.0230818427,semact_fmri_builder,002,we018,
2,object,trial_images_objects\r_computer_mouse.png,n,n,99,,,computer_mouse,,,,,,0,2,2,1,,,,,0,0,0,0,,,,,,,,,,,,,,,,,0,10,10,6,,,,,,,,,,,1411119507,246.52272977,1411119507,247.032725339,None,1.5,,249.521518469,,,,,,2014_Sep_19_1034,60.0230818427,semact_fmri_builder,002,we018,
2,animal,trial_images_animals\r_penguin.png,f,n,84,,,penguin,,,,,,0,2,2,1,,,,,0,0,0,0,,,,,,,,,,,,,,,,,0,11,11,5,,,,,,,,,,,1411119511,251.021091058,1411119512,251.529546014,3,0.5,,254.036566305,1411119514,253.103496019,1.57367532678,,,2014_Sep_19_1034,60.0230818427,semact_fmri_builder,002,we018,
2,object,trial_images_objects\r_african_sickle.png,f,n,94,,,african_sickle,,,,,,0,2,2,1,,,,,0,0,0,0,,,,,,,,,,,,,,,,,0,12,12,0,,,,,,,,,,,1411119515,254.536489335,1411119515,255.044342113,None,1.5,,257.535216157,,,,,,2014_Sep_19_1034,60.0230818427,semact_fmri_builder,002,we018,
2,object,trial_images_objects\r_tin_opener.png,n,n,95,,,tin_opener,,,,,,0,2,2,1,,,,,0,0,0,0,,,,,,,,,,,,,,,,,0,13,13,9,,,,,,,,,,,1411119519,259.034871752,1411119520,259.545885442,None,1.5,,262.033604007,,,,,,2014_Sep_19_1034,60.0230818427,semact_fmri_builder,002,we018,
2,,,,,,,,,,,,,,0,2,2,1,,,,,0,0,0,0,,,,,,,,,,,,,,,,,,,,,,,,,,,,,,,,,,,,,,,,,,,,2014_Sep_19_1034,60.0230818427,semact_fmri_builder,002,we018,
2,,,,,,,,,,,,,,0,2,2,1,,,,,,,,,,,,,,,,,,,,,,,,,,,,,,,,,,,,,,,,,,,,,,,,,,,,2014_Sep_19_1034,60.0230818427,semact_fmri_builder,002,we018,
3,animal,trial_images_animals\r_wallaby.png,f,v,83,,,,wallaby,,,,,0,3,3,2,,,,,,,,,0,0,0,0,,,,,,,,,,,,,,,,,0,0,0,5,,,,,,,1411119530,269.565153663,1411119531,270.05828037,3,2.5,1411119533,272.546802142,1411119532,271.496846332,1.43821189942,1411119527,266.552677539,2014_Sep_19_1034,60.0230818427,semact_fmri_builder,002,we018,
3,object,trial_images_objects\r_hairbrush.png,n,n,106,,,,hairbrush,,,,,0,3,3,2,,,,,,,,,0,0,0,0,,,,,,,,,,,,,,,,,0,1,1,9,,,,,,,1411119535,275.045810584,1411119536,275.5549299,None,0.5,1411119538,278.044561251,,,,,,2014_Sep_19_1034,60.0230818427,semact_fmri_builder,002,we018,
3,animal,trial_images_animals\r_koala.png,f,n,88,,,,koala,,,,,0,3,3,2,,,,,,,,,0,0,0,0,,,,,,,,,,,,,,,,,0,2,2,0,,,,,,,1411119539,278.544532878,1411119540,279.057883445,3,0.5,1411119542,281.543349951,1411119540,279.677182212,0.619031333837,,,2014_Sep_19_1034,60.0230818427,semact_fmri_builder,002,we018,
3,animal,trial_images_animals\r_robin.png,n,n,62,,,,robin,,,,,0,3,3,2,,,,,,,,,0,0,0,0,,,,,,,,,,,,,,,,,0,3,3,12,,,,,,,1411119542,282.043253059,1411119543,282.556019859,None,0.5,1411119545,285.042006141,,,,,,2014_Sep_19_1034,60.0230818427,semact_fmri_builder,002,we018,
3,animal,trial_images_animals\r_owl_whitebarn.png,n,n,85,,,,owl_whitebarn,,,,,0,3,3,2,,,,,,,,,0,0,0,0,,,,,,,,,,,,,,,,,0,4,4,2,,,,,,,1411119546,285.541968712,1411119547,286.052029781,None,1.5,1411119549,288.557374234,,,,,,2014_Sep_19_1034,60.0230818427,semact_fmri_builder,002,we018,
3,object,trial_images_objects\r_cutteknife.png,n,n,102,,,,cutterknife,,,,,0,3,3,2,,,,,,,,,0,0,0,0,,,,,,,,,,,,,,,,,0,5,5,11,,,,,,,1411119551,290.057030131,1411119551,290.566079419,None,3.5,1411119554,293.055750312,,,,,,2014_Sep_19_1034,60.0230818427,semact_fmri_builder,002,we018,
3,object,trial_images_objects\r_chopsticks.png,f,n,96,,,,chopsticks,,,,,0,3,3,2,,,,,,,,,0,0,0,0,,,,,,,,,,,,,,,,,0,6,6,3,,,,,,,1411119557,296.554686915,1411119558,297.062244187,3,0.5,1411119560,299.553499158,1411119558,297.937168726,0.874659519802,,,2014_Sep_19_1034,60.0230818427,semact_fmri_builder,002,we018,
3,object,trial_images_objects\r_crosscut_saw.png,n,n,100,,,,crosscut_saw,,,,,0,3,3,2,,,,,,,,,0,0,0,0,,,,,,,,,,,,,,,,,0,7,7,13,,,,,,,1411119561,300.053392004,1411119561,300.561232406,None,2.5,1411119564,303.052120938,,,,,,2014_Sep_19_1034,60.0230818427,semact_fmri_builder,002,we018,
3,object,trial_images_objects\r_pencil.png,n,n,111,,,,pencil,,,,,0,3,3,2,,,,,,,,,0,0,0,0,,,,,,,,,,,,,,,,,0,8,8,10,,,,,,,1411119566,305.551402851,1411119567,306.059650742,None,2.5,1411119569,308.550104317,,,,,,2014_Sep_19_1034,60.0230818427,semact_fmri_builder,002,we018,
3,object,trial_images_objects\r_scissors.png,n,n,114,,,,scissors,,,,,0,3,3,2,,,,,,,,,0,0,0,0,,,,,,,,,,,,,,,,,0,9,9,1,,,,,,,1411119572,311.049428488,1411119572,311.557088387,None,0.5,1411119575,314.048129049,,,,,,2014_Sep_19_1034,60.0230818427,semact_fmri_builder,002,we018,
3,object,trial_images_objects\r_squeezer.png,n,n,101,,,,squeezer,,,,,0,3,3,2,,,,,,,,,0,0,0,0,,,,,,,,,,,,,,,,,0,10,10,6,,,,,,,1411119575,314.548107618,1411119576,315.058857496,None,0.5,1411119578,317.546848023,,,,,,2014_Sep_19_1034,60.0230818427,semact_fmri_builder,002,we018,
3,object,trial_images_objects\r_hammer.png,n,v,107,,,,hammer,,,,,0,3,3,2,,,,,,,,,0,0,0,0,,,,,,,,,,,,,,,,,0,11,11,7,,,,,,,1411119579,318.046883338,1411119579,318.556150256,None,1.5,1411119581,321.045584201,,,,,,2014_Sep_19_1034,60.0230818427,semact_fmri_builder,002,we018,
3,animal,trial_images_animals\r_hare.png,n,v,78,,,,hare,,,,,0,3,3,2,,,,,,,,,0,0,0,0,,,,,,,,,,,,,,,,,0,12,12,8,,,,,,,1411119583,322.545209009,1411119584,323.054615076,3,1.5,1411119586,325.544049626,1411119584,323.927765073,0.87288195962,,,2014_Sep_19_1034,60.0230818427,semact_fmri_builder,002,we018,
3,animal,trial_images_animals\r_pony.png,n,n,81,,,,pony,,,,,0,3,3,2,,,,,,,,,0,0,0,0,,,,,,,,,,,,,,,,,0,13,13,4,,,,,,,1411119587,327.043583276,1411119588,327.555155981,None,0.5,1411119590,330.042338471,,,,,,2014_Sep_19_1034,60.0230818427,semact_fmri_builder,002,we018,
3,,,,,,,,,,,,,,0,3,3,2,,,,,,,,,0,0,0,0,,,,,,,,,,,,,,,,,,,,,,,,,,,,,,,,,,,,,,,,2014_Sep_19_1034,60.0230818427,semact_fmri_builder,002,we018,
3,,,,,,,,,,,,,,0,3,3,2,,,,,,,,,,,,,,,,,,,,,,,,,,,,,,,,,,,,,,,,,,,,,,,,,,,,2014_Sep_19_1034,60.0230818427,semact_fmri_builder,002,we018,
